File: Auto_Polymerization/Spectra/spectra_while_flow/spectrum_2025-06-19_09-45-56.txt
# Wavelength (nm)	Intensity (a.u.)
197.7802	0.000237
198.3922	0.001461
199.0044	0.001504
199.6168	0.000069
200.2292	0.000090
200.8418	-0.000121
201.4546	0.000892
202.0674	0.000470
202.6805	0.001229
203.2936	0.001335
203.9069	-0.000543
204.5203	0.000681
205.1338	0.000955
205.7475	-0.000206
206.3614	0.000111
206.9753	-0.001324
207.5894	-0.000164
208.2036	-0.000607
208.8180	0.000512
209.4325	0.000448
210.0471	-0.000353
210.6618	0.000702
211.2767	0.000575
211.8918	0.000575
212.5069	0.000047
213.1222	0.000491
213.7376	-0.000670
214.3532	-0.000459
214.9689	0.000596
215.5847	0.000090
216.2007	0.001419
216.8168	-0.000396
217.4330	-0.000818
218.0494	0.000132
218.6659	0.000322
219.2825	-0.000227
219.8992	0.000913
220.5161	-0.000712
221.1332	0.001757
221.7503	0.000702
222.3676	0.000765
222.9850	-0.000480
223.6026	0.000385
224.2203	-0.000142
224.8381	0.000111
225.4561	-0.000058
226.0742	0.000512
226.6924	-0.000965
227.3107	0.000258
227.9292	-0.000754
228.5478	0.000343
229.1666	-0.001261
229.7855	-0.000902
230.4045	0.000702
231.0236	0.000385
231.6429	-0.000586
232.2623	0.002896
232.8818	0.000301
233.5015	0.000047
234.1213	0.000617
234.7413	0.000723
235.3613	0.001208
235.9815	0.000174
236.6018	0.000132
237.2223	0.001314
237.8429	-0.000733
238.4636	0.000554
239.0845	-0.001366
239.7055	0.002115
240.3266	0.001018
240.9478	0.000237
241.5692	-0.000100
242.1907	0.000322
242.8124	0.000870
243.4341	0.001103
244.0560	-0.000564
244.6781	0.000385
245.3002	-0.000459
245.9225	-0.000902
246.5449	-0.000586
247.1675	0.001060
247.7902	0.000892
248.4130	0.001103
249.0359	-0.000733
249.6590	0.000216
250.2822	-0.000775
250.9056	-0.000142
251.5290	-0.001050
252.1526	0.000913
252.7763	0.001820
253.4002	-0.000079
254.0242	0.000005
254.6483	-0.000396
255.2725	0.000111
255.8969	0.000955
256.5214	0.000533
257.1460	-0.000058
257.7708	0.000406
258.3957	0.000005
259.0207	-0.000417
259.6459	0.000026
260.2711	-0.000248
260.8965	0.001736
261.5221	0.000533
262.1477	-0.000733
262.7735	0.000554
263.3995	0.001124
264.0255	0.000364
264.6517	0.000090
265.2780	0.001208
265.9044	0.001314
266.5310	-0.000818
267.1577	0.000153
267.7845	-0.000058
268.4114	-0.000818
269.0385	-0.000248
269.6657	0.001504
270.2931	-0.000902
270.9205	0.000934
271.5481	0.000005
272.1758	0.001883
272.8037	0.000913
273.4316	0.001081
274.0597	-0.000501
274.6880	0.001081
275.3163	0.000364
275.9448	0.000870
276.5734	0.002580
277.2022	0.001018
277.8310	-0.000375
278.4600	0.001124
279.0891	0.000195
279.7184	0.000617
280.3477	-0.000775
280.9772	0.000786
281.6069	0.000934
282.2366	0.000807
282.8665	-0.000881
283.4965	0.000427
284.1266	-0.000058
284.7569	-0.000564
285.3873	0.000702
286.0178	-0.000185
286.6484	-0.001071
287.2792	0.001039
287.9101	-0.000079
288.5411	-0.001008
289.1723	0.001039
289.8035	0.001398
290.4349	-0.001641
291.0665	-0.000121
291.6981	0.000723
292.3299	0.000723
292.9618	-0.000375
293.5938	0.000997
294.2260	-0.000586
294.8582	0.000343
295.4906	0.000870
296.1232	0.000659
296.7558	0.000258
297.3886	0.000343
298.0215	0.000659
298.6545	0.000554
299.2877	-0.000164
299.9210	0.000237
300.5544	0.000047
301.1879	-0.001261
301.8215	-0.000037
302.4553	-0.000375
303.0892	-0.001176
303.7233	0.001166
304.3574	0.000090
304.9917	-0.000607
305.6261	-0.000079
306.2606	0.000807
306.8953	0.000448
307.5301	0.001060
308.1650	0.000153
308.8000	0.000955
309.4351	0.000554
310.0704	0.001292
310.7058	-0.000691
311.3413	0.000448
311.9770	0.000870
312.6127	0.000934
313.2486	0.000955
313.8846	0.000617
314.5208	-0.000649
315.1570	-0.001029
315.7934	0.001018
316.4299	0.000005
317.0666	0.000892
317.7033	-0.000037
318.3402	0.001630
318.9772	0.000322
319.6143	-0.000121
320.2516	0.000470
320.8890	-0.000037
321.5265	0.000491
322.1641	-0.000438
322.8018	0.000448
323.4397	0.000681
324.0777	0.000533
324.7158	-0.000311
325.3540	0.000554
325.9924	0.000237
326.6308	0.000174
327.2694	0.000026
327.9082	0.001124
328.5470	0.000406
329.1860	0.000512
329.8251	0.000533
330.4643	0.000533
331.1036	-0.000121
331.7431	-0.000691
332.3826	-0.000142
333.0223	0.000913
333.6622	-0.000522
334.3021	0.000280
334.9422	0.000892
335.5823	0.000765
336.2227	0.001187
336.8631	0.001356
337.5036	-0.000269
338.1443	0.001081
338.7851	-0.000311
339.4260	-0.000206
340.0670	0.000617
340.7082	0.001250
341.3495	0.000723
341.9909	0.000765
342.6324	-0.000818
343.2740	-0.000438
343.9158	-0.000902
344.5577	0.000132
345.1997	0.001039
345.8418	0.001651
346.4840	0.000174
347.1264	-0.000923
347.7689	0.000406
348.4115	-0.000142
349.0542	0.001609
349.6971	0.001145
350.3400	-0.000227
350.9831	0.000807
351.6263	0.001166
352.2696	-0.000248
352.9131	0.000807
353.5566	0.001377
354.2003	0.001060
354.8441	-0.000417
355.4881	-0.000649
356.1321	0.000849
356.7763	0.000448
357.4206	0.000976
358.0650	0.001588
358.7095	-0.002316
359.3541	0.001039
359.9989	-0.000185
360.6438	-0.000290
361.2888	0.001335
361.9339	-0.000269
362.5791	0.001060
363.2245	-0.000311
363.8699	0.000385
364.5155	-0.000797
365.1612	0.000659
365.8071	0.000047
366.4530	0.000723
367.0991	-0.000797
367.7453	0.001187
368.3916	0.000681
369.0380	0.001567
369.6845	-0.000142
370.3312	0.000069
370.9780	-0.000375
371.6249	0.000195
372.2719	0.000448
372.9190	0.000237
373.5663	-0.001240
374.2136	0.000870
374.8611	-0.000459
375.5087	0.000723
376.1564	-0.000185
376.8043	0.001968
377.4522	-0.000987
378.1003	-0.000438
378.7485	-0.000185
379.3968	0.000301
380.0452	-0.000269
380.6938	0.000385
381.3424	-0.000079
381.9912	0.001841
382.6401	0.000280
383.2891	0.000596
383.9382	0.001482
384.5875	0.001715
385.2368	0.000026
385.8863	0.001862
386.5359	0.001588
387.1856	0.002284
387.8355	0.002305
388.4854	0.002875
389.1355	0.003930
389.7856	0.003571
390.4359	0.002875
391.0863	0.004753
391.7369	0.005070
392.3875	0.005407
393.0383	0.008340
393.6891	0.007961
394.3401	0.008615
394.9912	0.009185
395.6425	0.010746
396.2938	0.012603
396.9453	0.012962
397.5968	0.016317
398.2485	0.014608
398.9003	0.018448
399.5522	0.018490
400.2043	0.017245
400.8564	0.019883
401.5087	0.019292
402.1610	0.019208
402.8135	0.021107
403.4661	0.021424
404.1189	0.022226
404.7717	0.023660
405.4246	0.026741
406.0777	0.025285
406.7309	0.025750
407.3842	0.023766
408.0376	0.024420
408.6911	0.025918
409.3448	0.025581
409.9985	0.026615
410.6524	0.026551
411.3064	0.027269
411.9605	0.027290
412.6147	0.029105
413.2690	0.028746
413.9234	0.030075
414.5780	0.028366
415.2326	0.028134
415.8874	0.027016
416.5423	0.029527
417.1973	0.031025
417.8524	0.028324
418.5077	0.029210
419.1630	0.029885
419.8185	0.030455
420.4741	0.032629
421.1298	0.035414
421.7856	0.037567
422.4415	0.035921
423.0975	0.034232
423.7536	0.036089
424.4099	0.033895
425.0663	0.033177
425.7228	0.032544
426.3793	0.028788
427.0361	0.030202
427.6929	0.033325
428.3498	0.029506
429.0068	0.029548
429.6640	0.034992
430.3213	0.035857
430.9787	0.033494
431.6362	0.032059
432.2938	0.028746
432.9515	0.028830
433.6093	0.032122
434.2673	0.031679
434.9253	0.029252
435.5835	0.027417
436.2418	0.031067
436.9001	0.029843
437.5586	0.029231
438.2173	0.029421
438.8760	0.030962
439.5348	0.030012
440.1938	0.029949
440.8528	0.029252
441.5120	0.033810
442.1713	0.033789
442.8307	0.032397
443.4902	0.033346
444.1498	0.034929
444.8095	0.031742
445.4694	0.029717
446.1293	0.031848
446.7894	0.030413
447.4496	0.031194
448.1098	0.027691
448.7702	0.028387
449.4307	0.027860
450.0914	0.026657
450.7521	0.024694
451.4129	0.025116
452.0739	0.023956
452.7349	0.024188
453.3961	0.023217
454.0574	0.022521
454.7188	0.021128
455.3803	0.022078
456.0419	0.022373
456.7036	0.020347
457.3654	0.019904
458.0274	0.022331
458.6894	0.022057
459.3516	0.020474
460.0138	0.020748
460.6762	0.019968
461.3387	0.017267
462.0013	0.018849
462.6640	0.016971
463.3268	0.017161
463.9897	0.016423
464.6528	0.016950
465.3159	0.015832
465.9792	0.018216
466.6425	0.014291
467.3060	0.014650
467.9696	0.011632
468.6333	0.011759
469.2970	0.012751
469.9610	0.012097
470.6250	0.010472
471.2891	0.010008
471.9533	0.009775
472.6177	0.009754
473.2821	0.009839
473.9467	0.010641
474.6113	0.009100
475.2761	0.009311
475.9410	0.009754
476.6060	0.010071
477.2711	0.006737
477.9363	0.008319
478.6016	0.008277
479.2670	0.007813
479.9325	0.006800
480.5982	0.006779
481.2639	0.007370
481.9298	0.008784
482.5957	0.006948
483.2618	0.006863
483.9280	0.005703
484.5943	0.007665
485.2606	0.007792
485.9271	0.019503
486.5937	0.013088
487.2605	0.010999
487.9273	0.007792
488.5942	0.005829
489.2612	0.005154
489.9284	0.003972
490.5956	0.004099
491.2630	0.005112
491.9304	0.004141
492.5980	0.004648
493.2657	0.002896
493.9334	0.004183
494.6013	0.004648
495.2693	0.005787
495.9374	0.002537
496.6056	0.005386
497.2739	0.002643
497.9423	0.004331
498.6109	0.003002
499.2795	0.003909
499.9482	0.002537
500.6171	0.004352
501.2860	0.004964
501.9551	0.003382
502.6242	0.002242
503.2935	0.004521
503.9628	0.003529
504.6323	0.004648
505.3019	0.002537
505.9716	0.003888
506.6414	0.003487
507.3113	0.004015
507.9813	0.003550
508.6514	0.003403
509.3216	0.001567
509.9919	0.003951
510.6623	0.001757
511.3329	0.003466
512.0035	0.003065
512.6742	0.002580
513.3451	0.003044
514.0160	0.003149
514.6871	0.002643
515.3582	0.002791
516.0295	0.001947
516.7008	0.003023
517.3723	0.002537
518.0439	0.003783
518.7155	0.003593
519.3873	0.003888
520.0592	0.004542
520.7312	0.002390
521.4033	0.004859
522.0755	0.002411
522.7478	0.003698
523.4202	0.004838
524.0927	0.004690
524.7653	0.003445
525.4380	0.004711
526.1108	0.003382
526.7837	0.004500
527.4568	0.003128
528.1299	0.004416
528.8031	0.005154
529.4765	0.004880
530.1499	0.005787
530.8234	0.006040
531.4971	0.005365
532.1708	0.005745
532.8447	0.004141
533.5186	0.007264
534.1927	0.007180
534.8668	0.006969
535.5411	0.007539
536.2155	0.007074
536.8899	0.007074
537.5645	0.008045
538.2392	0.008868
538.9139	0.009142
539.5888	0.010261
540.2638	0.009986
540.9389	0.010472
541.6140	0.010408
542.2893	0.012413
542.9647	0.012181
543.6402	0.013954
544.3158	0.015515
544.9915	0.014713
545.6673	0.014966
546.3432	0.013700
547.0192	0.015916
547.6953	0.015937
548.3715	0.019799
549.0478	0.017921
549.7242	0.019440
550.4007	0.018955
551.0773	0.019377
551.7540	0.020263
552.4308	0.023048
553.1077	0.023745
553.7847	0.024315
554.4618	0.023302
555.1390	0.022922
555.8163	0.025792
556.4937	0.028683
557.1712	0.026594
557.8488	0.026383
558.5266	0.025306
559.2044	0.024082
559.8823	0.026425
560.5603	0.031932
561.2384	0.036448
561.9166	0.035836
562.5949	0.034507
563.2733	0.035984
563.9519	0.038390
564.6305	0.039803
565.3092	0.042103
565.9880	0.041154
566.6669	0.042948
567.3459	0.050228
568.0250	0.054722
568.7043	0.067215
569.3836	0.079855
570.0630	0.102180
570.7425	0.107329
571.4221	0.124865
572.1018	0.141620
572.7816	0.120518
573.4615	0.143835
574.1415	0.161772
574.8216	0.171289
575.5018	0.179075
576.1821	0.159704
576.8626	0.184309
577.5431	0.199713
578.2237	0.243373
578.9044	0.207099
579.5851	0.201971
580.2660	0.210559
580.9470	0.211045
581.6281	0.324847
582.3093	0.311468
582.9906	0.244364
583.6720	0.199945
584.3535	0.199396
585.0351	0.225900
585.7167	0.240566
586.3985	0.209441
587.0804	0.219591
587.7624	0.229741
588.4445	0.206845
589.1266	0.177915
589.8089	0.168102
590.4913	0.151010
591.1737	0.133411
591.8563	0.136175
592.5389	0.157594
593.2217	0.202963
593.9046	0.195134
594.5875	0.171352
595.2705	0.200599
595.9537	0.175910
596.6369	0.145713
597.3203	0.156729
598.0037	0.146283
598.6872	0.158775
599.3709	0.187284
600.0546	0.188001
600.7384	0.184372
601.4223	0.187601
602.1064	0.170002
602.7905	0.174222
603.4747	0.192285
604.1590	0.175298
604.8434	0.159894
605.5279	0.167068
606.2125	0.176902
606.8972	0.157805
607.5819	0.161033
608.2668	0.151749
608.9518	0.146114
609.6369	0.133369
610.3220	0.154239
611.0073	0.140649
611.6927	0.140227
612.3781	0.132039
613.0637	0.132229
613.7493	0.126722
614.4351	0.128072
615.1209	0.130372
615.8068	0.132651
616.4929	0.115643
617.1790	0.109946
617.8652	0.114208
618.5515	0.106464
619.2379	0.091735
619.9244	0.091883
620.6110	0.098382
621.2977	0.076288
621.9845	0.078103
622.6714	0.086270
623.3584	0.087325
624.0454	0.088422
624.7326	0.092896
625.4199	0.086185
626.1072	0.077892
626.7947	0.072849
627.4822	0.071182
628.1698	0.064703
628.8576	0.058922
629.5454	0.063311
630.2333	0.063036
630.9213	0.057402
631.6094	0.054406
632.2976	0.050460
632.9859	0.047210
633.6743	0.046683
634.3628	0.044889
635.0514	0.040310
635.7400	0.039951
636.4288	0.047759
637.1177	0.044699
637.8066	0.042188
638.4957	0.041829
639.1848	0.040394
639.8740	0.040006
640.5633	0.036549
641.2528	0.033610
641.9423	0.031392
642.6319	0.031177
643.3216	0.031540
644.0113	0.030461
644.7012	0.028275
645.3912	0.025192
646.0812	0.027944
646.7714	0.025375
647.4616	0.024789
648.1520	0.030714
648.8424	0.031116
649.5329	0.033250
650.2236	0.029979
650.9143	0.029169
651.6051	0.029693
652.2960	0.030478
652.9870	0.032578
653.6780	0.032178
654.3692	0.034936
655.0605	0.064217
655.7518	0.966973
656.4433	1.000000
657.1348	0.870463
657.8264	0.540039
658.5181	0.409278
659.2099	0.328242
659.9018	0.096119
660.5938	0.030691
661.2859	0.024685
661.9781	0.021360
662.6704	0.023077
663.3627	0.024019
664.0552	0.021765
664.7477	0.023382
665.4403	0.024229
666.1330	0.021942
666.8259	0.020821
667.5188	0.021319
668.2117	0.020540
668.9048	0.022437
669.5980	0.019524
670.2913	0.020369
670.9846	0.022247
671.6781	0.029822
672.3716	0.033009
673.0652	0.033494
673.7589	0.029252
674.4527	0.028134
675.1466	0.024737
675.8406	0.026066
676.5347	0.024758
677.2288	0.024758
677.9231	0.029548
678.6174	0.030160
679.3119	0.031848
680.0064	0.035878
680.7010	0.034000
681.3957	0.035625
682.0905	0.035963
682.7854	0.031468
683.4803	0.030118
684.1754	0.033768
684.8705	0.035984
685.5658	0.043876
686.2611	0.041787
686.9565	0.043327
687.6520	0.043960
688.3476	0.039128
689.0433	0.037123
689.7390	0.039297
690.4349	0.032987
691.1308	0.037545
691.8269	0.037630
692.5230	0.036849
693.2192	0.039698
693.9155	0.036765
694.6119	0.033599
695.3083	0.034844
696.0049	0.030033
696.7016	0.037102
697.3983	0.038326
698.0951	0.039086
698.7920	0.036955
699.4890	0.035604
700.1861	0.031447
700.8833	0.030308
701.5806	0.025771
702.2779	0.030054
702.9753	0.029147
703.6729	0.027775
704.3705	0.028282
705.0682	0.026172
705.7660	0.025581
706.4638	0.031236
707.1618	0.036638
707.8599	0.037419
708.5580	0.037588
709.2562	0.032375
709.9545	0.034739
710.6529	0.033832
711.3514	0.031637
712.0500	0.027860
712.7486	0.030540
713.4474	0.031278
714.1462	0.034296
714.8451	0.031658
715.5441	0.034992
716.2432	0.029569
716.9424	0.029041
717.6416	0.027395
718.3410	0.028894
719.0404	0.028303
719.7399	0.029548
720.4395	0.027817
721.1392	0.030983
721.8390	0.027163
722.5388	0.027564
723.2388	0.029843
723.9388	0.026383
724.6389	0.026594
725.3391	0.031848
726.0394	0.032080
726.7398	0.031553
727.4403	0.032671
728.1408	0.031785
728.8414	0.037313
729.5421	0.035815
730.2429	0.034781
730.9438	0.042040
731.6448	0.043960
732.3458	0.041555
733.0470	0.042525
733.7482	0.044615
734.4495	0.052317
735.1509	0.045269
735.8524	0.046324
736.5539	0.047801
737.2556	0.048919
737.9573	0.045184
738.6591	0.039719
739.3610	0.047590
740.0630	0.042736
740.7651	0.040268
741.4672	0.035604
742.1695	0.032375
742.8718	0.035583
743.5742	0.032038
744.2767	0.029970
744.9792	0.028619
745.6819	0.028788
746.3846	0.029463
747.0874	0.030708
747.7903	0.029928
748.4933	0.029168
749.1964	0.032291
749.8995	0.038769
750.6028	0.040289
751.3061	0.040457
752.0095	0.041829
752.7130	0.039191
753.4166	0.038073
754.1202	0.045248
754.8239	0.040500
755.5278	0.040141
756.2317	0.047020
756.9356	0.050143
757.6397	0.060779
758.3438	0.057318
759.0481	0.055313
759.7524	0.059196
760.4568	0.063986
761.1613	0.061834
761.8658	0.054131
762.5705	0.049362
763.2752	0.051156
763.9800	0.049194
764.6849	0.058310
765.3898	0.057592
766.0949	0.049384
766.8000	0.043053
767.5052	0.039719
768.2105	0.042314
768.9159	0.046640
769.6214	0.045058
770.3269	0.046345
771.0325	0.049468
771.7382	0.046345
772.4440	0.040394
773.1499	0.037123
773.8558	0.037187
774.5618	0.034021
775.2679	0.030054
775.9741	0.028155
776.6804	0.024357
777.3868	0.023935
778.0932	0.024526
778.7997	0.027290
779.5063	0.030603
780.2130	0.029379
780.9197	0.032080
781.6265	0.034549
782.3335	0.033494
783.0405	0.034000
783.7475	0.036427
784.4547	0.033367
785.1619	0.027628
785.8692	0.028662
786.5766	0.028155
787.2841	0.030265
787.9917	0.030392
788.6993	0.030519
789.4070	0.029168
790.1148	0.027353
790.8227	0.023850
791.5306	0.023302
792.2387	0.023217
792.9468	0.024336
793.6550	0.022057
794.3632	0.032987
795.0716	0.030308
795.7800	0.028472
796.4885	0.023133
797.1971	0.022057
797.9058	0.024315
798.6145	0.022521
799.3233	0.021149
800.0322	0.021170
800.7412	0.019841
801.4503	0.019102
802.1594	0.018828
802.8686	0.017267
803.5779	0.018870
804.2873	0.016887
804.9968	0.018068
805.7063	0.017984
806.4159	0.022880
807.1256	0.023808
807.8354	0.022690
808.5452	0.024441
809.2551	0.022922
809.9651	0.019461
810.6752	0.019124
811.3853	0.018913
812.0956	0.016908
812.8059	0.012160
813.5163	0.016634
814.2267	0.017921
814.9373	0.016697
815.6479	0.014333
816.3586	0.012962
817.0694	0.016233
817.7802	0.014945
818.4912	0.013278
819.2022	0.013447
819.9133	0.011189
820.6244	0.014903
821.3357	0.015051
822.0470	0.014608
822.7584	0.013996
823.4698	0.011928
824.1814	0.010767
824.8930	0.010619
825.6047	0.013131
826.3165	0.011801
827.0283	0.013954
827.7402	0.014355
828.4522	0.011126
829.1643	0.012265
829.8765	0.012413
830.5887	0.010303
831.3010	0.009860
832.0134	0.007707
832.7259	0.010408
833.4384	0.009058
834.1510	0.009965
834.8637	0.010641
835.5765	0.010725
836.2893	0.009522
837.0022	0.008129
837.7152	0.007792
838.4283	0.008151
839.1414	0.007412
839.8546	0.007750
840.5679	0.007982
841.2813	0.006420
841.9947	0.005260
842.7082	0.005534
843.4218	0.005344
844.1355	0.005703
844.8492	0.004922
845.5631	0.007201
846.2770	0.004205
846.9909	0.005450
847.7050	0.005703
848.4191	0.003804
849.1333	0.006251
849.8475	0.005196
850.5619	0.004753
851.2763	0.006167
851.9908	0.004901
852.7053	0.009037
853.4200	0.014502
854.1347	0.015030
854.8495	0.014608
855.5643	0.012350
856.2792	0.011337
856.9942	0.011653
857.7093	0.009607
858.4245	0.008615
859.1397	0.008805
859.8550	0.008784
860.5704	0.007159
861.2858	0.008383
862.0013	0.006526
862.7169	0.006631
863.4326	0.007074
864.1483	0.006716
864.8642	0.006357
865.5800	0.006378
866.2960	0.003171
867.0120	0.007707
867.7281	0.005661
868.4443	0.006758
869.1606	0.007518
869.8769	0.005450
870.5933	0.006547
871.3097	0.005703
872.0263	0.003783
872.7429	0.005028
873.4596	0.003994
874.1763	0.005682
874.8932	0.005703
875.6101	0.006800
876.3270	0.004922
877.0441	0.005576
877.7612	0.005344
878.4784	0.007264
879.1957	0.007518
879.9130	0.005028
880.6304	0.009733
881.3479	0.006969
882.0654	0.007264
882.7831	0.006505
883.5007	0.007433
884.2185	0.007159
884.9363	0.007095
885.6542	0.006083
886.3722	0.006568
887.0903	0.004795
887.8084	0.005217
888.5266	0.004901
889.2448	0.005956
889.9632	0.004120
890.6816	0.005618
891.4001	0.005597
892.1186	0.005323
892.8372	0.005049
893.5559	0.004605
894.2747	0.004036
894.9935	0.004352
895.7124	0.003403
896.4314	0.005344
897.1504	0.005450
897.8695	0.005302
898.5887	0.004310
899.3079	0.004964
900.0272	0.003994
900.7466	0.003466
901.4661	0.004816
902.1856	0.004816
902.9052	0.003994
903.6249	0.004458
904.3446	0.005576
905.0644	0.004648
905.7843	0.005872
906.5043	0.004479
907.2243	0.003508
907.9444	0.004120
908.6645	0.003656
909.3847	0.003360
910.1050	0.001968
910.8254	0.003571
911.5458	0.001715
912.2663	0.004816
912.9869	0.003593
913.7075	0.002516
914.4283	0.003128
915.1490	0.003192
915.8699	0.003783
916.5908	0.004669
917.3118	0.004015
918.0328	0.003825
918.7539	0.004352
919.4751	0.004183
920.1964	0.002390
920.9177	0.003888
921.6391	0.003825
922.3606	0.003128
923.0821	0.003255
923.8037	0.003297
924.5254	0.002242
925.2471	0.001862
925.9689	0.001630
926.6908	0.003192
927.4127	0.003255
928.1347	0.002031
928.8568	0.002516
929.5789	0.002580
930.3011	0.001377
931.0234	0.002305
931.7457	0.001567
932.4681	0.001968
933.1906	0.001862
933.9131	0.002917
934.6358	0.001630
935.3584	0.002685
936.0812	0.001989
936.8040	0.002052
937.5269	0.000427
938.2498	0.001715
938.9728	0.001904
939.6959	0.002812
940.4190	0.001124
941.1422	0.000807
941.8655	0.001314
942.5889	-0.000121
943.3123	0.001672
944.0357	0.002052
944.7593	-0.000311
945.4829	0.000512
946.2066	0.000153
946.9303	0.001968
947.6541	0.001546
948.3780	0.001039
949.1019	0.000744
949.8259	-0.000797
950.5500	0.002242
951.2741	0.000512
951.9983	0.000554
952.7226	0.000849
953.4469	0.001314
954.1713	0.000934
954.8958	0.001187
955.6203	0.001883
956.3449	0.000934
957.0696	0.000491
957.7943	0.000554
958.5191	0.002073
959.2439	0.001862
959.9688	0.000849
960.6938	0.000976
961.4189	0.000828
962.1440	0.001567
962.8692	0.000575
963.5944	0.000976
964.3197	0.000195
965.0451	0.000132
965.7705	0.000195
966.4960	0.001546
967.2216	0.002073
967.9472	0.002137
968.6729	0.001292
969.3987	0.001546
970.1245	0.000258
970.8504	0.000807
971.5763	0.000491
972.3023	0.001377
973.0284	-0.000965
973.7545	0.001883
974.4807	0.001271
975.2070	0.000807
975.9333	0.000786
976.6597	-0.000142
977.3862	0.000786
978.1127	0.001229
978.8393	0.000638
979.5659	0.001335
980.2926	0.000786
981.0194	-0.000290
981.7462	0.000111
982.4731	0.000427
983.2001	-0.001092
983.9271	0.000237
984.6542	0.000153
985.3814	0.000596
986.1086	-0.000164
986.8358	0.000617
987.5632	0.001018
988.2906	0.000301
989.0180	0.000047
989.7456	-0.000459
990.4732	0.001525
991.2008	0.000934
991.9285	0.000047
992.6563	0.001356
993.3841	0.001947
994.1120	0.002537
994.8400	0.001799
995.5680	-0.000311
996.2961	-0.000860
997.0242	-0.000375
997.7524	0.001609
998.4807	0.000955
999.2090	0.000111
999.9374	0.001060
1000.67	0.000870
1001.39	-0.000248
1002.12	-0.001134
1002.85	0.001187
1003.58	0.001757
1004.31	-0.000290
1005.04	0.000174
1005.77	-0.000987
1006.5	0.000470
1007.22	0.000280
1007.95	0.001989
1008.68	-0.000881
1009.41	0.000934
1010.14	0.000364
1010.87	-0.000142
1011.6	0.000111
1012.33	0.001440
1013.06	0.000301
1013.79	0.000596
1014.52	-0.000037
1015.25	-0.000332
1015.98	0.000005
1016.71	0.000955
1017.44	0.001947
1018.17	0.000280
1018.9	0.000237
1019.63	0.000448
1020.36	0.000575
1021.09	-0.000586
1021.82	-0.001957
1022.55	-0.000269
1023.03	0.002200