File: Auto_Polymerization/Data/UV_VIS_Spectra/MRG-061-G- spectra_G1_G2_after_aminolysis/MRG-061-G-2_after_aminolysis_spectrum_2025-06-20_14-49-03_absorbance.txt
# Wavelength	Absorbance
197.78 2.878522
198.392 2.682145
199.004 -0.401592
199.617 -0.419165
200.229 2.463893
200.842 0.058147
201.455 3.220892
202.067 0.529974
202.68 0.297170
203.294 2.745075
203.907 -1.240714
204.52 3.062958
205.134 -0.069688
205.748 2.682145
206.361 0.000000
206.975 0.481553
207.589 0.000000
208.204 3.152288
208.818 0.682631
209.433 0.351646
210.047 2.798651
210.662 3.055378
211.277 0.467039
211.892 -0.322767
212.507 3.209783
213.122 2.866287
213.738 0.512670
214.353 0.000000
214.969 0.027294
215.585 0.198595
216.201 1.444452
216.817 1.020871
217.433 2.536558
218.049 -3.222196
218.666 3.186674
219.282 2.960946
219.899 1.160431
220.516 -2.328380
221.133 -0.002713
221.75 3.183555
222.368 0.806074
222.985 -2.958564
223.603 0.989005
224.22 -0.240294
224.838 0.607120
225.456 0.004853
226.074 0.076155
226.692 0.000000
227.311 0.484568
227.929 3.252853
228.548 0.067229
229.167 0.000000
229.786 2.791691
230.405 1.963788
231.024 -0.150577
231.643 2.718502
232.262 0.041826
232.882 -0.087646
233.501 0.495463
234.121 0.000000
234.741 0.814303
235.361 3.122544
235.982 2.562293
236.602 -2.604226
237.222 -0.178517
237.843 1.851258
238.464 -0.093821
239.084 -2.756636
239.706 -0.380211
240.327 2.190332
240.948 -0.090288
241.569 2.632457
242.191 3.206826
242.812 2.587711
243.434 -0.521764
244.056 -3.137671
244.678 0.675886
245.3 -0.568922
245.923 -0.111546
246.545 2.396199
247.167 1.402460
247.79 1.845098
248.413 -0.222779
249.036 3.030600
249.659 0.751658
250.282 3.189490
250.906 -0.526031
251.529 -0.748036
252.153 0.132435
252.776 2.397940
253.4 0.330777
254.024 0.431830
254.648 0.400161
255.273 0.294831
255.897 3.030195
256.521 2.827369
257.146 0.020618
257.771 0.000000
258.396 0.580358
259.021 0.047944
259.646 0.305175
260.271 0.337875
260.897 3.252853
261.522 0.640275
262.148 0.073967
262.774 2.907411
263.399 0.878446
264.026 2.396199
264.652 0.016978
265.278 -0.253195
265.904 2.950851
266.531 -0.309760
267.158 2.884795
267.784 2.550228
268.411 3.021603
269.038 2.123852
269.666 -0.083546
270.293 -2.328380
270.921 -0.047600
271.548 -0.524728
272.176 0.871069
272.804 0.177747
273.432 0.662817
274.06 0.076729
274.688 3.183555
275.316 3.055378
275.945 0.596456
276.573 0.191746
277.202 3.047275
277.831 0.274740
278.46 2.935507
279.089 2.691965
279.718 3.272770
280.348 2.632457
280.977 -0.429958
281.607 0.000000
282.237 -0.097213
282.866 0.019369
283.497 0.200011
284.127 -1.895265
284.757 3.025715
285.387 -0.301030
286.018 0.297296
286.648 2.940516
287.279 -0.322719
287.91 2.621176
288.541 0.374773
289.172 -2.802774
289.803 -2.530200
290.435 0.000000
291.067 1.784400
291.698 -0.199845
292.33 3.042969
292.962 -2.440909
293.594 0.036193
294.226 -2.869232
294.858 0.318180
295.491 -1.643453
296.123 3.247728
296.756 3.220892
297.389 0.162681
298.022 3.149219
298.654 0.360633
299.288 -0.301030
299.921 1.061331
300.554 0.121017
301.188 3.104487
301.822 3.364739
302.455 3.097604
303.089 -0.875061
303.723 2.924279
304.357 1.071241
304.992 0.116231
305.626 2.294466
306.261 2.750123
306.895 2.575188
307.53 3.165244
308.165 -2.472756
308.8 -0.171248
309.435 -0.337211
310.07 -0.135064
310.706 3.168203
311.341 0.327963
311.977 3.142702
312.613 1.078339
313.249 3.332034
313.885 0.242504
314.521 3.104828
315.157 3.362859
315.793 -0.134248
316.43 3.525174
317.067 0.485265
317.703 0.160458
318.34 3.097604
318.977 3.437592
319.614 3.245019
320.252 0.515952
320.889 -0.698077
321.526 0.589943
322.164 3.132580
322.802 1.966040
323.44 3.437433
324.078 2.196380
324.716 0.626833
325.354 0.766862
325.992 0.627181
326.631 0.603314
327.269 3.416973
327.908 0.952093
328.547 3.636688
329.186 0.440133
329.825 3.485153
330.464 1.128098
331.104 0.645084
331.743 1.177338
332.383 0.351202
333.022 0.738878
333.662 0.452227
334.302 1.184218
334.942 3.626956
335.582 1.084576
336.223 0.909601
336.863 3.676053
337.504 3.672098
338.144 0.964133
338.785 3.703205
339.426 1.006281
340.067 3.741388
340.708 3.745543
341.349 3.731266
341.991 0.872602
342.632 1.058139
343.274 0.887017
343.916 3.793022
344.558 3.886829
345.2 3.834484
345.842 0.943664
346.484 1.054760
347.126 2.544284
347.769 3.886321
348.411 1.063967
349.054 1.010158
349.697 0.924685
350.34 3.937869
350.983 1.888437
351.626 3.954918
352.27 0.871335
352.913 3.896857
353.557 1.464513
354.2 3.930898
354.844 1.237637
355.488 1.265683
356.132 1.347141
356.776 1.130472
357.421 3.988202
358.065 1.251572
358.709 4.012879
359.354 3.988202
359.999 3.957464
360.644 3.982497
361.289 2.680414
361.934 1.303460
362.579 4.062845
363.224 1.043540
363.87 4.028164
364.515 1.034161
365.161 1.518126
365.807 1.093546
366.453 1.121613
367.099 4.077622
367.745 1.209962
368.392 4.101850
369.038 0.689125
369.685 4.136974
370.331 1.357484
370.978 4.107990
371.625 1.072572
372.272 4.101128
372.919 1.539353
373.566 4.154637
374.214 1.170988
374.861 1.023055
375.509 0.973944
376.156 4.224455
376.804 4.234720
377.452 4.269816
378.1 1.696963
378.748 4.301356
379.397 4.318189
380.045 2.351261
380.694 1.255638
381.342 4.319959
381.991 1.326138
382.64 1.584917
383.289 1.981826
383.938 4.339471
384.587 1.283585
385.237 4.356332
385.886 1.086818
386.536 1.403490
387.186 2.188938
387.836 4.396356
388.485 1.415094
389.135 1.483025
389.786 4.411367
390.436 3.049100
391.086 4.433866
391.737 1.174750
392.387 1.759712
393.038 1.764869
393.689 1.408441
394.34 4.463997
394.991 1.652108
395.642 1.687266
396.294 4.479316
396.945 4.514747
397.597 1.499382
398.248 3.184593
398.9 2.085256
399.552 1.767845
400.204 1.271874
400.856 1.756608
401.509 4.529879
402.161 1.938273
402.813 1.490379
403.466 1.490294
404.119 1.453831
404.772 1.532810
405.425 1.546864
406.078 2.921982
406.731 1.968133
407.384 1.670466
408.038 2.037602
408.691 4.546839
409.345 1.659308
409.998 1.332751
410.652 1.303600
411.306 4.538058
411.961 1.306155
412.615 1.266204
413.269 1.203124
413.923 1.340954
414.578 1.176561
415.233 1.295012
415.887 1.004274
416.542 1.557504
417.197 1.408131
417.852 1.142366
418.508 1.302069
419.163 1.064328
419.818 1.109388
420.474 1.147057
421.13 0.924621
421.786 0.927716
422.442 0.944689
423.098 0.982111
423.754 0.877356
424.41 0.993141
425.066 0.988684
425.723 0.868664
426.379 0.958351
427.036 0.882036
427.693 0.697500
428.35 0.809794
429.007 0.800051
429.664 0.870699
430.321 0.705626
430.979 0.813734
431.636 0.641217
432.294 0.665059
432.952 0.680413
433.609 0.683837
434.267 0.608238
434.925 0.594519
435.584 0.607475
436.242 0.582385
436.9 0.551381
437.559 0.622185
438.217 0.554346
438.876 0.556293
439.535 0.532866
440.194 0.515347
440.853 0.523315
441.512 0.528496
442.171 0.443172
442.831 0.489534
443.49 0.409682
444.15 0.434681
444.81 0.445550
445.469 0.423760
446.129 0.443751
446.789 0.435026
447.45 0.391590
448.11 0.379669
448.77 0.371801
449.431 0.351248
450.091 0.354074
450.752 0.356981
451.413 0.361506
452.074 0.347653
452.735 0.323732
453.396 0.345442
454.057 0.325133
454.719 0.281991
455.38 0.305678
456.042 0.304194
456.704 0.264398
457.365 0.314672
458.027 0.273047
458.689 0.271276
459.352 0.266762
460.014 0.282210
460.676 0.284961
461.339 0.236847
462.001 0.236089
462.664 0.286004
463.327 0.294487
463.99 0.269170
464.653 0.255284
465.316 0.271284
465.979 0.258162
466.642 0.235994
467.306 0.263595
467.97 0.254792
468.633 0.235626
469.297 0.252898
469.961 0.220899
470.625 0.236305
471.289 0.250977
471.953 0.232188
472.618 0.281102
473.282 0.240039
473.947 0.255224
474.611 0.259727
475.276 0.246013
475.941 0.228743
476.606 0.238689
477.271 0.231219
477.936 0.267094
478.602 0.183429
479.267 0.237306
479.933 0.224942
480.598 0.232740
481.264 0.253233
481.93 0.233018
482.596 0.214523
483.262 0.246569
483.928 0.186785
484.594 0.258539
485.261 0.218451
485.927 0.361330
486.594 0.137812
487.26 0.196833
487.927 0.198001
488.594 0.211932
489.261 0.216878
489.928 0.233196
490.596 0.226047
491.263 0.200433
491.93 0.230745
492.598 0.204011
493.266 0.235242
493.933 0.218092
494.601 0.222344
495.269 0.223859
495.937 0.232003
496.606 0.238317
497.274 0.209837
497.942 0.202023
498.611 0.224995
499.279 0.215377
499.948 0.228524
500.617 0.205537
501.286 0.236316
501.955 0.202805
502.624 0.187330
503.293 0.222446
503.963 0.192062
504.632 0.249349
505.302 0.223987
505.972 0.172784
506.641 0.213101
507.311 0.191741
507.981 0.219224
508.651 0.186430
509.322 0.187690
509.992 0.222064
510.662 0.224282
511.333 0.233665
512.004 0.236054
512.674 0.213418
513.345 0.202902
514.016 0.190081
514.687 0.208171
515.358 0.207050
516.029 0.218553
516.701 0.235033
517.372 0.202946
518.044 0.252150
518.716 0.198268
519.387 0.251351
520.059 0.205993
520.731 0.196311
521.403 0.225802
522.076 0.164774
522.748 0.261785
523.42 0.196890
524.093 0.226083
524.765 0.193578
525.438 0.213618
526.111 0.202705
526.784 0.170984
527.457 0.200744
528.13 0.194922
528.803 0.214776
529.476 0.212175
530.15 0.194853
530.823 0.208547
531.497 0.206441
532.171 0.217131
532.845 0.204734
533.519 0.219196
534.193 0.230402
534.867 0.212489
535.541 0.205390
536.216 0.208493
536.89 0.191475
537.564 0.246080
538.239 0.230401
538.914 0.187001
539.589 0.182382
540.264 0.204329
540.939 0.201273
541.614 0.211973
542.289 0.199372
542.965 0.195249
543.64 0.199489
544.316 0.214383
544.991 0.203279
545.667 0.205151
546.343 0.189150
547.019 0.191278
547.695 0.197907
548.371 0.222102
549.048 0.175591
549.724 0.207927
550.401 0.175012
551.077 0.169553
551.754 0.245749
552.431 0.212547
553.108 0.172517
553.785 0.194350
554.462 0.202037
555.139 0.205436
555.816 0.196191
556.494 0.179948
557.171 0.165927
557.849 0.199222
558.527 0.140293
559.204 0.186386
559.882 0.193836
560.56 0.203045
561.238 0.176573
561.917 0.216917
562.595 0.203484
563.273 0.208394
563.952 0.178530
564.63 0.201932
565.309 0.195511
565.988 0.196773
566.667 0.200122
567.346 0.223349
568.025 0.184372
568.704 0.208987
569.384 0.211054
570.063 0.216622
570.742 0.178496
571.422 0.202988
572.102 0.206180
572.782 0.155993
573.462 0.246677
574.141 0.200371
574.822 0.178489
575.502 0.183627
576.182 0.198558
576.863 0.218160
577.543 0.204861
578.224 0.162435
578.904 0.167305
579.585 0.209892
580.266 0.185089
580.947 0.199071
581.628 0.214492
582.309 0.158638
582.991 0.138417
583.672 0.160419
584.354 0.186694
585.035 0.221065
585.717 0.177451
586.399 0.144603
587.08 0.206577
587.762 0.168682
588.444 0.172237
589.127 0.136012
589.809 0.185059
590.491 0.170171
591.174 0.166223
591.856 0.179797
592.539 0.235065
593.222 0.183351
593.905 0.166000
594.587 0.177365
595.27 0.186632
595.954 0.158387
596.637 0.153502
597.32 0.180586
598.004 0.166679
598.687 0.240033
599.371 0.173336
600.055 0.188187
600.738 0.169283
601.422 0.164685
602.106 0.169049
602.79 0.191882
603.475 0.200898
604.159 0.165775
604.843 0.150496
605.528 0.187070
606.212 0.145773
606.897 0.159090
607.582 0.163660
608.267 0.149069
608.952 0.167700
609.637 0.160298
610.322 0.172954
611.007 0.156406
611.693 0.165381
612.378 0.160501
613.064 0.182791
613.749 0.173739
614.435 0.156445
615.121 0.163365
615.807 0.164764
616.493 0.142516
617.179 0.164063
617.865 0.172016
618.552 0.134906
619.238 0.163345
619.924 0.182111
620.611 0.156152
621.298 0.142829
621.985 0.187908
622.671 0.160539
623.358 0.174692
624.045 0.146108
624.733 0.168102
625.42 0.145304
626.107 0.153094
626.795 0.164566
627.482 0.159946
628.17 0.130874
628.858 0.151596
629.545 0.175614
630.233 0.165250
630.921 0.144579
631.609 0.134851
632.298 0.156684
632.986 0.129694
633.674 0.186548
634.363 0.139591
635.051 0.166759
635.74 0.154675
636.429 0.152345
637.118 0.157323
637.807 0.164204
638.496 0.151527
639.185 0.149308
639.874 0.120607
640.563 0.104618
641.253 0.138235
641.942 0.112533
642.632 0.124039
643.322 0.150249
644.011 0.148220
644.701 0.119531
645.391 0.175195
646.081 0.136575
646.771 0.128135
647.462 0.178487
648.152 0.200132
648.842 0.166108
649.533 0.144729
650.224 0.158487
650.914 0.138732
651.605 0.186833
652.296 0.117029
652.987 0.142833
653.678 0.134505
654.369 0.181358
655.061 0.392141
655.752 0.482411
656.443 0.011376
657.135 0.069698
657.826 0.123599
658.518 0.137696
659.21 0.127442
659.902 0.035012
660.594 0.106103
661.286 0.142067
661.978 0.127120
662.67 0.136440
663.363 0.168253
664.055 0.128815
664.748 0.183769
665.44 0.174132
666.133 0.186639
666.826 0.138986
667.519 0.146701
668.212 0.073950
668.905 0.183958
669.598 0.151584
670.291 0.208869
670.985 0.161005
671.678 0.218253
672.372 0.162598
673.065 0.135326
673.759 0.096429
674.453 0.109947
675.147 0.126479
675.841 0.137309
676.535 0.076347
677.229 0.130349
677.923 0.132105
678.617 0.185415
679.312 0.169160
680.006 0.121675
680.701 0.160396
681.396 0.167790
682.091 0.127861
682.785 0.126231
683.48 0.162277
684.175 0.154173
684.87 0.173790
685.566 0.175323
686.261 0.119439
686.957 0.152889
687.652 0.147618
688.348 0.153960
689.043 0.146914
689.739 0.153302
690.435 0.128078
691.131 0.211170
691.827 0.154033
692.523 0.158683
693.219 0.165662
693.915 0.098454
694.612 0.127220
695.308 0.161775
696.005 0.141987
696.702 0.185149
697.398 0.155815
698.095 0.194115
698.792 0.132466
699.489 0.117933
700.186 0.114155
700.883 0.129419
701.581 0.172071
702.278 0.161866
702.975 0.138360
703.673 0.131554
704.37 0.152707
705.068 0.117109
705.766 0.165637
706.464 0.189862
707.162 0.144796
707.86 0.151423
708.558 0.121384
709.256 0.124344
709.955 0.130726
710.653 0.147924
711.351 0.150013
712.05 0.112433
712.749 0.178541
713.447 0.128078
714.146 0.150840
714.845 0.134118
715.544 0.140879
716.243 0.122305
716.942 0.145244
717.642 0.109091
718.341 0.158038
719.04 0.202881
719.74 0.141992
720.439 0.166583
721.139 0.181936
721.839 0.121847
722.539 0.092956
723.239 0.143607
723.939 0.142601
724.639 0.148367
725.339 0.131133
726.039 0.143113
726.74 0.110703
727.44 0.139832
728.141 0.165657
728.841 0.086609
729.542 0.122989
730.243 0.138061
730.944 0.197282
731.645 0.167543
732.346 0.137652
733.047 0.170960
733.748 0.169782
734.449 0.157407
735.151 0.144135
735.852 0.141303
736.554 0.160664
737.256 0.141269
737.957 0.098387
738.659 0.122787
739.361 0.149413
740.063 0.120347
740.765 0.095182
741.467 0.147979
742.169 0.120901
742.872 0.130792
743.574 0.087343
744.277 0.115341
744.979 0.176810
745.682 0.092745
746.385 0.163921
747.087 0.146866
747.79 0.103052
748.493 0.088466
749.196 0.149284
749.899 0.164788
750.603 0.145893
751.306 0.127084
752.01 0.121122
752.713 0.105040
753.417 0.175350
754.12 0.127818
754.824 0.162240
755.528 0.126229
756.232 0.151037
756.936 0.123325
757.64 0.154582
758.344 0.120401
759.048 0.138769
759.752 0.154829
760.457 0.157238
761.161 0.129219
761.866 0.145788
762.571 0.126296
763.275 0.151899
763.98 0.149021
764.685 0.164104
765.39 0.136223
766.095 0.114572
766.8 0.103006
767.505 0.128526
768.211 0.162808
768.916 0.168781
769.621 0.112823
770.327 0.130722
771.033 0.143929
771.738 0.134235
772.444 0.141115
773.15 0.087749
773.856 0.126715
774.562 0.087415
775.268 0.148687
775.974 0.130821
776.68 0.153773
777.387 0.111481
778.093 0.165838
778.8 0.139528
779.506 0.132447
780.213 0.118156
780.92 0.157772
781.626 0.137048
782.333 0.153571
783.04 0.130763
783.747 0.122411
784.455 0.112891
785.162 0.176372
785.869 0.107720
786.577 0.119012
787.284 0.160120
787.992 0.126779
788.699 0.151415
789.407 0.101224
790.115 0.123004
790.823 0.122783
791.531 0.100120
792.239 0.082880
792.947 0.103705
793.655 0.175294
794.363 0.181810
795.072 0.154121
795.78 0.095827
796.489 0.114788
797.197 0.113355
797.906 0.131345
798.615 0.099094
799.323 0.136255
800.032 0.092902
800.741 0.087870
801.45 0.135601
802.159 0.190143
802.869 0.058896
803.578 0.187803
804.287 0.099419
804.997 0.095693
805.706 0.136102
806.416 0.180447
807.126 0.096865
807.835 0.114217
808.545 0.143087
809.255 0.120762
809.965 0.075149
810.675 0.077705
811.385 0.150123
812.096 0.132803
812.806 0.114139
813.516 0.115363
814.227 0.142784
814.937 0.122241
815.648 0.079429
816.359 0.114511
817.069 0.113691
817.78 0.061884
818.491 0.115949
819.202 0.126147
819.913 0.168854
820.624 0.166541
821.336 0.148561
822.047 0.131284
822.758 0.173994
823.47 0.210332
824.181 0.203923
824.893 0.066278
825.605 0.159144
826.317 0.151164
827.028 0.073810
827.74 0.185186
828.452 0.186012
829.164 0.072033
829.876 0.060092
830.589 -0.009313
831.301 0.202662
832.013 0.204371
832.726 0.268952
833.438 0.049592
834.151 0.164769
834.864 0.158245
835.577 0.203022
836.289 0.176305
837.002 0.243014
837.715 0.030143
838.428 0.213855
839.141 0.161242
839.855 0.163323
840.568 0.063869
841.281 0.088317
841.995 0.182531
842.708 -0.015780
843.422 0.051427
844.135 0.222915
844.849 0.207899
845.563 0.025995
846.277 0.065512
846.991 0.194106
847.705 0.039654
848.419 0.069904
849.133 0.272482
849.847 0.220074
850.562 0.064139
851.276 0.031892
851.991 0.044237
852.705 0.131945
853.42 0.163794
854.135 0.102223
854.85 0.134893
855.564 0.122723
856.279 0.109131
856.994 0.062428
857.709 0.166094
858.424 0.222884
859.14 0.103372
859.855 0.067646
860.57 0.116400
861.286 0.185436
862.001 0.108439
862.717 0.114153
863.433 0.257967
864.148 0.298467
864.864 -0.045589
865.58 0.216077
866.296 0.321962
867.012 0.221423
867.728 0.015128
868.444 0.263577
869.161 0.042181
869.877 0.045074
870.593 0.013698
871.31 0.207684
872.026 -0.023207
872.743 0.170166
873.46 0.576352
874.176 0.043106
874.893 0.107158
875.61 0.150411
876.327 0.548697
877.044 0.019842
877.761 0.102512
878.478 0.042142
879.196 0.313917
879.913 0.179370
880.63 0.164604
881.348 0.042548
882.065 0.228067
882.783 0.155539
883.501 0.121699
884.218 0.199777
884.936 0.247845
885.654 0.263616
886.372 0.132612
887.09 0.067414
887.808 0.349434
888.527 0.047820
889.245 0.096573
889.963 0.150313
890.682 0.352480
891.4 0.216949
892.119 0.115869
892.837 0.143638
893.556 0.285875
894.275 0.020667
894.994 0.161856
895.712 0.105273
896.431 0.204767
897.15 0.147834
897.87 0.111606
898.589 0.166861
899.308 0.260977
900.027 -0.074133
900.747 0.350778
901.466 -0.026441
902.186 0.128739
902.905 0.087857
903.625 0.101835
904.345 0.206030
905.064 0.171412
905.784 0.119124
906.504 0.069035
907.224 0.028543
907.944 0.124834
908.664 0.133554
909.385 0.103990
910.105 0.091979
910.825 0.288842
911.546 0.061682
912.266 0.266967
912.987 0.130614
913.707 0.102130
914.428 -0.044857
915.149 0.261065
915.87 0.083152
916.591 1.079067
917.312 0.055507
918.033 0.144983
918.754 0.056772
919.475 0.007149
920.196 -0.045840
920.918 0.117964
921.639 0.083371
922.361 0.575455
923.082 0.052583
923.804 0.353101
924.525 0.267776
925.247 0.102512
925.969 0.030950
926.691 0.491888
927.413 0.225786
928.135 0.159429
928.857 0.448832
929.579 0.408438
930.301 0.266661
931.023 0.732922
931.746 0.212412
932.468 0.378988
933.191 0.328545
933.913 0.284843
934.636 0.313913
935.358 0.639163
936.081 0.370034
936.804 0.234459
937.527 0.068034
938.25 0.074200
938.973 0.576700
939.696 -0.134609
940.419 1.025690
941.142 -0.151392
941.865 1.236747
942.589 -0.067293
943.312 1.591578
944.036 -0.041713
944.759 0.303505
945.483 0.090926
946.207 -0.096910
946.93 -0.053721
947.654 -0.064793
948.378 -0.075634
949.102 0.339508
949.826 -0.019350
950.55 1.437263
951.274 0.092975
951.998 0.576633
952.723 0.419589
953.447 0.070147
954.171 -1.244088
954.896 0.034657
955.62 -0.206250
956.345 0.233725
957.07 -0.028447
957.794 -0.195316
958.519 -0.128258
959.244 3.145818
959.969 -0.392775
960.694 -0.268725
961.419 -0.119109
962.144 2.673021
962.869 2.719331
963.594 3.215373
964.32 0.862516
965.045 2.945961
965.77 1.573779
966.496 2.663701
967.222 0.660598
967.947 1.498011
968.673 3.067443
969.399 2.896526
970.125 -0.351669
970.85 2.710117
971.576 -0.339229
972.302 0.587552
973.028 0.923525
973.755 3.218010
974.481 0.249472
975.207 0.098434
975.933 0.297396
976.66 3.082785
977.386 -0.350443
978.113 -0.296284
978.839 0.191886
979.566 0.490515
980.293 0.340214
981.019 2.752816
981.746 1.845098
982.473 0.786027
983.2 -0.160418
983.927 -0.205097
984.654 0.391207
985.381 3.229170
986.109 0.000000
986.836 0.005032
987.563 0.766205
988.291 0.020060
989.018 2.814248
989.746 0.310938
990.473 2.935507
991.201 2.745075
991.928 -2.843855
992.656 3.161667
993.384 0.073190
994.112 0.522879
994.84 -3.297542
995.568 2.583765
996.296 -0.054015
997.024 2.049218
997.752 0.141272
998.481 2.890421
999.209 -2.627366
999.937 2.318063
1000.67 2.907949
1001.39 2.745075
1002.12 1.196653
1002.85 2.913284
1003.58 -3.049218
1004.31 -0.162053
1005.04 3.129368
1005.77 -0.033000
1006.5 -0.056318
1007.22 -0.305351
1007.95 0.862827
1008.68 -0.483837
1009.41 0.000000
1010.14 -0.471746
1010.87 0.934795
1011.6 1.591065
1012.33 -0.051153
1013.06 -3.014940
1013.79 0.102189
1014.52 0.165017
1015.25 0.137743
1015.98 2.450249
1016.71 -0.040117
1017.44 -0.749037
1018.17 0.444264
1018.9 3.021603
1019.63 2.950851
1020.36 2.575188
1021.09 0.581266
1021.82 -2.328380
1022.55 2.902003
1023.03 2.812913