File: Auto_Polymerization/Data/UV_VIS_Spectra/MRG-061-G- spectra_G1_G2_after_aminolysis/MRG-061-G-2_after_aminolysis_spectrum_2025-06-20_14-49-16_absorbance.txt
# Wavelength	Absorbance
197.78 0.380211
198.392 0.247576
199.004 0.295305
199.617 2.768638
200.229 -0.622823
200.842 0.010465
201.455 0.694553
202.067 2.760422
202.68 1.548616
203.294 2.745075
203.907 1.959041
204.52 3.062958
205.134 0.659203
205.748 2.682145
206.361 -2.552668
206.975 0.071750
207.589 0.000000
208.204 0.987935
208.818 2.495544
209.433 -0.428511
210.047 -0.001379
210.662 0.130066
211.277 -0.228455
211.892 2.480007
212.507 3.209783
213.122 2.866287
213.738 0.049416
214.353 0.000000
214.969 -0.006564
215.585 -0.019922
216.201 2.806180
216.817 1.041393
217.433 -0.684595
218.049 0.000000
218.666 0.005688
219.282 2.960946
219.899 0.426282
220.516 0.000000
221.133 0.116673
221.75 0.518913
222.368 -0.324260
222.985 -3.031004
223.603 0.079789
224.22 0.135478
224.838 0.570275
225.456 -0.293240
226.074 -0.583180
226.692 0.000000
227.311 0.270575
227.929 3.252853
228.548 0.308197
229.167 -2.914343
229.786 2.791691
230.405 1.963788
231.024 0.392110
231.643 1.116442
232.262 3.280123
232.882 -0.044556
233.501 2.902003
234.121 -1.602060
234.741 3.097604
235.361 0.457902
235.982 0.009625
236.602 0.000000
237.222 -0.289317
237.843 1.851258
238.464 3.063333
239.084 -2.683947
239.706 -0.197907
240.327 -0.965611
240.948 2.990339
241.569 0.197888
242.191 0.175822
242.812 -0.226537
243.434 -0.072591
244.056 -2.498311
244.678 0.115815
245.3 2.357935
245.923 3.026125
246.545 -0.712704
247.167 0.401126
247.79 -1.033998
248.413 0.346400
249.036 0.245270
249.659 0.030302
250.282 0.754921
250.906 0.045438
251.529 2.008600
252.153 0.375246
252.776 -0.649724
253.4 2.935003
254.024 0.271766
254.648 2.769377
255.273 1.305213
255.897 0.292207
256.521 -0.097943
257.146 0.278754
257.771 -2.956649
258.396 0.459536
259.021 0.012445
259.646 0.096635
260.271 -0.487727
260.897 0.550422
261.522 0.301343
262.148 1.070816
262.774 -0.279545
263.399 1.189793
264.026 -0.529113
264.652 -0.160554
265.278 0.716181
265.904 2.950851
266.531 2.294466
267.158 -0.244895
267.784 -0.291131
268.411 0.337656
269.038 -0.717508
269.666 -0.020203
270.293 0.000000
270.921 0.095797
271.548 -0.402156
272.176 0.320961
272.804 0.007923
273.432 0.765571
274.06 0.511392
274.688 3.183555
275.316 3.055378
275.945 2.965672
276.573 -0.215654
277.202 0.882922
277.831 0.592256
278.46 0.010195
279.089 -0.136050
279.718 0.381232
280.348 2.632457
280.977 -0.348997
281.607 -2.498311
282.237 0.106988
282.866 -0.239314
283.497 3.030600
284.127 -2.057992
284.757 0.171409
285.387 -2.399674
286.018 0.452886
286.648 0.015204
287.279 -0.019922
287.91 0.524266
288.541 0.461416
289.172 -3.253096
289.803 0.000000
290.435 -2.320146
291.067 0.346099
291.698 0.545922
292.33 0.003555
292.962 0.000000
293.594 2.994757
294.226 -2.946452
294.858 -0.019305
295.491 0.000000
296.123 1.455336
296.756 0.111989
297.389 0.043466
298.022 0.321204
298.654 0.155108
299.288 -2.274158
299.921 0.532087
300.554 -0.097500
301.188 3.104487
301.822 1.445660
302.455 -0.025267
303.089 -0.705774
303.723 0.009936
304.357 2.432969
304.992 -0.129726
305.626 2.294466
306.261 3.051153
306.895 -0.048061
307.53 -0.027602
308.165 -2.017033
308.8 0.296240
309.435 -0.016619
310.07 0.808899
310.706 3.168203
311.341 0.718954
311.977 0.458755
312.613 3.012837
313.249 0.517787
313.885 0.161048
314.521 3.104828
315.157 0.864549
315.793 -0.723547
316.43 1.360822
317.067 3.463445
317.703 0.257078
318.34 0.343256
318.977 0.350876
319.614 1.227986
320.252 0.160397
320.889 -0.598326
321.526 3.516800
322.164 3.132580
322.802 3.327767
323.44 0.570556
324.078 0.572233
324.716 3.399154
325.354 0.658453
325.992 1.712650
326.631 0.509981
327.269 0.733026
327.908 3.508395
328.547 1.844297
329.186 1.290153
329.825 1.468120
330.464 0.653546
331.104 3.526469
331.743 0.588682
332.383 0.782889
333.022 0.795577
333.662 0.623506
334.302 0.970405
334.942 3.626956
335.582 0.164772
336.223 1.501884
336.863 0.784516
337.504 1.507745
338.144 1.078606
338.785 1.429048
339.426 1.919753
340.067 1.188720
340.708 0.497570
341.349 3.731266
341.991 0.520685
342.632 3.830460
343.274 0.811357
343.916 3.793022
344.558 0.550369
345.2 3.834484
345.842 0.848093
346.484 1.254177
347.126 0.875007
347.769 3.886321
348.411 1.196924
349.054 3.926085
349.697 3.921634
350.34 3.937869
350.983 0.669847
351.626 3.954918
352.27 0.992860
352.913 0.892106
353.557 0.716875
354.2 3.930898
354.844 0.946609
355.488 1.324496
356.132 4.015527
356.776 3.974327
357.421 3.988202
358.065 3.991935
358.709 0.957119
359.354 3.988202
359.999 1.090586
360.644 1.015886
361.289 1.056267
361.934 1.844971
362.579 0.913318
363.224 1.293219
363.87 0.775069
364.515 1.113091
365.161 4.048325
365.807 4.020403
366.453 4.118562
367.099 4.077622
367.745 1.376690
368.392 0.952323
369.038 4.150173
369.685 0.938317
370.331 0.769875
370.978 4.107990
371.625 0.945071
372.272 1.936775
372.919 1.417847
373.566 1.168762
374.214 0.980981
374.861 4.167317
375.509 1.245630
376.156 1.424426
376.804 1.221040
377.452 1.190635
378.1 1.374169
378.748 2.204446
379.397 2.044031
380.045 1.471512
380.694 1.387764
381.342 1.280545
381.991 1.942590
382.64 2.422475
383.289 1.384431
383.938 4.339471
384.587 1.987064
385.237 4.356332
385.886 1.258998
386.536 4.371972
387.186 4.362124
387.836 4.396356
388.485 1.273070
389.135 4.421044
389.786 1.425492
390.436 1.242330
391.086 1.749919
391.737 1.401031
392.387 1.680246
393.038 1.372382
393.689 1.771217
394.34 1.840748
394.991 4.469012
395.642 4.474726
396.294 1.543305
396.945 2.240589
397.597 4.514322
398.248 4.546321
398.9 4.558012
399.552 2.178439
400.204 1.589928
400.856 4.528930
401.509 1.885441
402.161 1.344266
402.813 1.391172
403.466 1.341524
404.119 1.313304
404.772 1.611739
405.425 4.561805
406.078 1.608786
406.731 1.901186
407.384 4.514322
408.038 1.365097
408.691 1.826679
409.345 1.626349
409.998 1.635102
410.652 2.313880
411.306 1.602047
411.961 1.260783
412.615 1.243972
413.269 1.458668
413.923 1.167410
414.578 1.288175
415.233 1.215749
415.887 1.157640
416.542 1.197281
417.197 1.209342
417.852 1.153630
418.508 1.204013
419.163 1.396635
419.818 0.903334
420.474 0.977880
421.13 0.996292
421.786 1.119799
422.442 1.025346
423.098 0.883902
423.754 0.915173
424.41 1.029924
425.066 0.882035
425.723 0.719205
426.379 0.812600
427.036 0.830197
427.693 0.811387
428.35 0.746464
429.007 0.725220
429.664 0.748359
430.321 0.758078
430.979 0.722917
431.636 0.608707
432.294 0.719172
432.952 0.705322
433.609 0.684066
434.267 0.582599
434.925 0.636268
435.584 0.555531
436.242 0.569021
436.9 0.588351
437.559 0.575874
438.217 0.569882
438.876 0.562424
439.535 0.510927
440.194 0.529574
440.853 0.473496
441.512 0.505542
442.171 0.445167
442.831 0.473963
443.49 0.412076
444.15 0.420100
444.81 0.422817
445.469 0.470496
446.129 0.388060
446.789 0.408723
447.45 0.393888
448.11 0.411627
448.77 0.358373
449.431 0.391810
450.091 0.353385
450.752 0.352666
451.413 0.362903
452.074 0.354034
452.735 0.320182
453.396 0.297673
454.057 0.330723
454.719 0.327997
455.38 0.277195
456.042 0.309336
456.704 0.307819
457.365 0.314413
458.027 0.315663
458.689 0.315590
459.352 0.254785
460.014 0.273627
460.676 0.264290
461.339 0.280980
462.001 0.251930
462.664 0.293517
463.327 0.303988
463.99 0.270602
464.653 0.261219
465.316 0.256393
465.979 0.261924
466.642 0.222110
467.306 0.230602
467.97 0.235029
468.633 0.226056
469.297 0.227074
469.961 0.202751
470.625 0.253225
471.289 0.235056
471.953 0.196003
472.618 0.254258
473.282 0.229610
473.947 0.272189
474.611 0.243298
475.276 0.248065
475.941 0.221417
476.606 0.221773
477.271 0.212718
477.936 0.251307
478.602 0.218274
479.267 0.252410
479.933 0.217913
480.598 0.206258
481.264 0.265871
481.93 0.195201
482.596 0.202071
483.262 0.266869
483.928 0.229237
484.594 0.242563
485.261 0.186466
485.927 0.349057
486.594 0.112043
487.26 0.215727
487.927 0.183405
488.594 0.198882
489.261 0.204963
489.928 0.219682
490.596 0.210983
491.263 0.186157
491.93 0.241707
492.598 0.224360
493.266 0.201647
493.933 0.192183
494.601 0.219618
495.269 0.210275
495.937 0.244052
496.606 0.216882
497.274 0.206413
497.942 0.200072
498.611 0.186162
499.279 0.215751
499.948 0.219888
500.617 0.190942
501.286 0.247123
501.955 0.206189
502.624 0.222681
503.293 0.199903
503.963 0.195619
504.632 0.236231
505.302 0.204108
505.972 0.185164
506.641 0.234710
507.311 0.177652
507.981 0.210559
508.651 0.238076
509.322 0.158919
509.992 0.224672
510.662 0.224388
511.333 0.220496
512.004 0.213775
512.674 0.233603
513.345 0.202689
514.016 0.221065
514.687 0.212364
515.358 0.189054
516.029 0.239056
516.701 0.201917
517.372 0.216373
518.044 0.214937
518.716 0.189390
519.387 0.218340
520.059 0.180344
520.731 0.199866
521.403 0.214614
522.076 0.191087
522.748 0.221951
523.42 0.206663
524.093 0.194103
524.765 0.192926
525.438 0.247264
526.111 0.194943
526.784 0.209718
527.457 0.214080
528.13 0.218379
528.803 0.170940
529.476 0.203658
530.15 0.161897
530.823 0.242286
531.497 0.223120
532.171 0.214459
532.845 0.183089
533.519 0.207294
534.193 0.207297
534.867 0.201009
535.541 0.180187
536.216 0.188283
536.89 0.154948
537.564 0.230406
538.239 0.206359
538.914 0.212583
539.589 0.210741
540.264 0.184035
540.939 0.220670
541.614 0.181414
542.289 0.231959
542.965 0.204086
543.64 0.222433
544.316 0.206901
544.991 0.218173
545.667 0.209935
546.343 0.198470
547.019 0.199991
547.695 0.198573
548.371 0.198764
549.048 0.176457
549.724 0.202726
550.401 0.159313
551.077 0.185614
551.754 0.226289
552.431 0.220390
553.108 0.167161
553.785 0.179977
554.462 0.170298
555.139 0.209731
555.816 0.177697
556.494 0.192768
557.171 0.184176
557.849 0.191636
558.527 0.147643
559.204 0.188951
559.882 0.184040
560.56 0.191035
561.238 0.209320
561.917 0.187013
562.595 0.187397
563.273 0.197796
563.952 0.190157
564.63 0.195752
565.309 0.197213
565.988 0.192441
566.667 0.166162
567.346 0.219363
568.025 0.201751
568.704 0.212957
569.384 0.218636
570.063 0.202205
570.742 0.178851
571.422 0.194936
572.102 0.204830
572.782 0.171168
573.462 0.225153
574.141 0.210673
574.822 0.180743
575.502 0.175502
576.182 0.192257
576.863 0.208910
577.543 0.201457
578.224 0.161964
578.904 0.160903
579.585 0.199876
580.266 0.183518
580.947 0.186784
581.628 0.211659
582.309 0.159547
582.991 0.137106
583.672 0.155926
584.354 0.179596
585.035 0.212749
585.717 0.177307
586.399 0.149752
587.08 0.206026
587.762 0.162884
588.444 0.157854
589.127 0.137365
589.809 0.176236
590.491 0.167771
591.174 0.163442
591.856 0.163784
592.539 0.233070
593.222 0.197590
593.905 0.157751
594.587 0.162558
595.27 0.188796
595.954 0.153384
596.637 0.166586
597.32 0.203000
598.004 0.169674
598.687 0.229032
599.371 0.174837
600.055 0.182602
600.738 0.169632
601.422 0.155401
602.106 0.174963
602.79 0.182545
603.475 0.197698
604.159 0.155431
604.843 0.160805
605.528 0.181082
606.212 0.141611
606.897 0.140685
607.582 0.167491
608.267 0.153427
608.952 0.163700
609.637 0.162706
610.322 0.170262
611.007 0.149032
611.693 0.165261
612.378 0.163420
613.064 0.166185
613.749 0.167721
614.435 0.162689
615.121 0.161060
615.807 0.164339
616.493 0.142695
617.179 0.160915
617.865 0.169233
618.552 0.131575
619.238 0.151049
619.924 0.183779
620.611 0.139527
621.298 0.128052
621.985 0.182419
622.671 0.176728
623.358 0.168145
624.045 0.160616
624.733 0.143275
625.42 0.132664
626.107 0.140406
626.795 0.162624
627.482 0.152969
628.17 0.129063
628.858 0.141566
629.545 0.150014
630.233 0.150766
630.921 0.128582
631.609 0.165885
632.298 0.115685
632.986 0.149002
633.674 0.154894
634.363 0.151097
635.051 0.142904
635.74 0.168920
636.429 0.168980
637.118 0.134281
637.807 0.140056
638.496 0.177977
639.185 0.122574
639.874 0.147973
640.563 0.139768
641.253 0.149173
641.942 0.126952
642.632 0.134732
643.322 0.147763
644.011 0.132764
644.701 0.163612
645.391 0.180056
646.081 0.084173
646.771 0.124572
647.462 0.147034
648.152 0.186359
648.842 0.178902
649.533 0.175404
650.224 0.165763
650.914 0.140637
651.605 0.112867
652.296 0.139828
652.987 0.153529
653.678 0.128826
654.369 0.160237
655.061 0.363279
655.752 0.471244
656.443 0.009961
657.135 0.070535
657.826 0.110271
658.518 0.136131
659.21 0.122888
659.902 0.033847
660.594 0.084241
661.286 0.119535
661.978 0.077924
662.67 0.145697
663.363 0.160379
664.055 0.107044
664.748 0.190396
665.44 0.166561
666.133 0.112040
666.826 0.113700
667.519 0.134213
668.212 0.130507
668.905 0.145067
669.598 0.133027
670.291 0.215344
670.985 0.147763
671.678 0.165612
672.372 0.185755
673.065 0.090764
673.759 0.097715
674.453 0.093312
675.147 0.123468
675.841 0.162139
676.535 0.084230
677.229 0.119148
677.923 0.149909
678.617 0.145189
679.312 0.141100
680.006 0.144130
680.701 0.119670
681.396 0.139655
682.091 0.133809
682.785 0.160990
683.48 0.146838
684.175 0.181694
684.87 0.149585
685.566 0.195180
686.261 0.164314
686.957 0.147797
687.652 0.123960
688.348 0.156683
689.043 0.132256
689.739 0.143849
690.435 0.140252
691.131 0.170199
691.827 0.156180
692.523 0.146649
693.219 0.122912
693.915 0.138408
694.612 0.097562
695.308 0.145383
696.005 0.163583
696.702 0.205958
697.398 0.126008
698.095 0.154199
698.792 0.136668
699.489 0.108965
700.186 0.137547
700.883 0.139503
701.581 0.171723
702.278 0.165067
702.975 0.121792
703.673 0.143520
704.37 0.164428
705.068 0.097779
705.766 0.100876
706.464 0.215024
707.162 0.134882
707.86 0.145755
708.558 0.114479
709.256 0.101116
709.955 0.096136
710.653 0.125535
711.351 0.104607
712.05 0.115398
712.749 0.156869
713.447 0.135411
714.146 0.115817
714.845 0.110811
715.544 0.154980
716.243 0.087706
716.942 0.156103
717.642 0.108322
718.341 0.154691
719.04 0.179671
719.74 0.134021
720.439 0.089568
721.139 0.127462
721.839 0.180187
722.539 0.097402
723.239 0.157697
723.939 0.130715
724.639 0.174165
725.339 0.183924
726.039 0.128430
726.74 0.155163
727.44 0.147544
728.141 0.154929
728.841 0.131183
729.542 0.143689
730.243 0.089997
730.944 0.153563
731.645 0.152092
732.346 0.124935
733.047 0.120651
733.748 0.169590
734.449 0.143811
735.151 0.119125
735.852 0.132374
736.554 0.132502
737.256 0.130045
737.957 0.078441
738.659 0.118753
739.361 0.135781
740.063 0.096100
740.765 0.102272
741.467 0.133009
742.169 0.140561
742.872 0.128729
743.574 0.152685
744.277 0.103547
744.979 0.156654
745.682 0.114370
746.385 0.146005
747.087 0.122482
747.79 0.159439
748.493 0.137113
749.196 0.151066
749.899 0.123639
750.603 0.141645
751.306 0.140153
752.01 0.097695
752.713 0.118204
753.417 0.139622
754.12 0.130781
754.824 0.121428
755.528 0.162094
756.232 0.170814
756.936 0.139527
757.64 0.156613
758.344 0.116159
759.048 0.138171
759.752 0.129799
760.457 0.134214
761.161 0.128719
761.866 0.129048
762.571 0.114950
763.275 0.134814
763.98 0.157056
764.685 0.150747
765.39 0.121813
766.095 0.101334
766.8 0.097743
767.505 0.141599
768.211 0.150911
768.916 0.154663
769.621 0.101217
770.327 0.089405
771.033 0.128312
771.738 0.136160
772.444 0.128571
773.15 0.101339
773.856 0.123356
774.562 0.106891
775.268 0.098753
775.974 0.102552
776.68 0.191123
777.387 0.108743
778.093 0.158712
778.8 0.119452
779.506 0.137662
780.213 0.110569
780.92 0.157480
781.626 0.115583
782.333 0.134769
783.04 0.087839
783.747 0.141256
784.455 0.131781
785.162 0.132707
785.869 0.115851
786.577 0.127594
787.284 0.171680
787.992 0.109005
788.699 0.138820
789.407 0.097922
790.115 0.107255
790.823 0.110394
791.531 0.146229
792.239 0.091326
792.947 0.124658
793.655 0.153899
794.363 0.144005
795.072 0.147454
795.78 0.096693
796.489 0.131023
797.197 0.124333
797.906 0.127978
798.615 0.131961
799.323 0.143006
800.032 0.158091
800.741 0.058484
801.45 0.147986
802.159 0.114957
802.869 0.117414
803.578 0.148339
804.287 0.091182
804.997 0.102842
805.706 0.147662
806.416 0.164208
807.126 0.134454
807.835 0.132984
808.545 0.120332
809.255 0.145074
809.965 0.090845
810.675 0.111950
811.385 0.105750
812.096 0.082740
812.806 0.046314
813.516 0.077017
814.227 0.164524
814.937 0.099363
815.648 0.049311
816.359 0.097835
817.069 0.132160
817.78 0.078100
818.491 0.091663
819.202 0.100410
819.913 0.110147
820.624 0.138760
821.336 0.215063
822.047 0.159682
822.758 0.211878
823.47 0.119192
824.181 0.151678
824.893 0.178517
825.605 0.181854
826.317 0.063395
827.028 0.172040
827.74 0.065771
828.452 0.133872
829.164 0.032812
829.876 0.120078
830.589 0.073036
831.301 0.103779
832.013 0.188442
832.726 0.159711
833.438 0.139933
834.151 0.140997
834.864 0.116664
835.577 0.131329
836.289 0.226053
837.002 0.119711
837.715 0.077133
838.428 0.071526
839.141 0.117446
839.855 0.091286
840.568 0.152224
841.281 0.038298
841.995 -0.001788
842.708 0.121491
843.422 0.171214
844.135 0.274544
844.849 0.018341
845.563 0.093573
846.277 0.154708
846.991 0.071935
847.705 0.025317
848.419 0.422658
849.133 0.226107
849.847 0.014280
850.562 0.035396
851.276 0.094145
851.991 0.182564
852.705 0.280178
853.42 0.126701
854.135 0.099946
854.85 0.124939
855.564 0.143859
856.279 0.163700
856.994 0.093216
857.709 0.185800
858.424 0.143716
859.14 0.095065
859.855 0.187522
860.57 0.162959
861.286 0.136102
862.001 0.085386
862.717 0.118435
863.433 0.270245
864.148 -0.033161
864.864 0.006180
865.58 0.164894
866.296 0.122619
867.012 0.362261
867.728 -0.000934
868.444 0.219101
869.161 -0.028097
869.877 0.346599
870.593 0.127631
871.31 0.097302
872.026 0.069334
872.743 0.092341
873.46 0.219891
874.176 0.194515
874.893 0.155636
875.61 0.240844
876.327 0.117524
877.044 -0.004711
877.761 0.146552
878.478 0.156723
879.196 0.163838
879.913 0.015499
880.63 0.164879
881.348 0.062552
882.065 0.084370
882.783 0.065453
883.501 0.116406
884.218 0.153208
884.936 0.127025
885.654 0.126583
886.372 0.076094
887.09 -0.028554
887.808 0.187790
888.527 0.202898
889.245 0.091088
889.963 0.010267
890.682 0.213224
891.4 0.122229
892.119 0.118269
892.837 0.109637
893.556 0.277467
894.275 0.059542
894.994 0.363441
895.712 -0.002656
896.431 0.309843
897.15 0.063696
897.87 0.200542
898.589 0.086400
899.308 0.106288
900.027 0.028546
900.747 0.339283
901.466 -0.028128
902.186 0.086012
902.905 -0.006410
903.625 0.239717
904.345 0.105147
905.064 0.142316
905.784 0.191035
906.504 0.187958
907.224 -0.006829
907.944 -0.066246
908.664 -0.011937
909.385 0.269784
910.105 -0.063594
910.825 0.125001
911.546 0.084538
912.266 0.425679
912.987 0.164431
913.707 0.114182
914.428 0.173415
915.149 0.201510
915.87 0.161109
916.591 0.216381
917.312 0.106912
918.033 0.208913
918.754 -0.075225
919.475 0.175065
920.196 -0.082682
920.918 0.019807
921.639 0.098966
922.361 0.096282
923.082 0.135033
923.804 0.248180
924.525 0.064364
925.247 0.337576
925.969 -0.124370
926.691 0.185299
927.413 0.073450
928.135 0.156544
928.857 0.052263
929.579 0.432033
930.301 0.075113
931.023 0.114455
931.746 -0.079424
932.468 0.465044
933.191 0.178113
933.913 0.060076
934.636 -0.113280
935.358 0.955727
936.081 0.052063
936.804 0.594246
937.527 -0.004966
938.25 0.110164
938.973 0.208724
939.696 0.097923
940.419 0.119220
941.142 -0.405500
941.865 3.409933
942.589 0.143950
943.312 0.183338
944.036 0.062109
944.759 0.343977
945.483 0.570339
946.207 1.343694
946.93 -0.630475
947.654 0.590711
948.378 0.301574
949.102 3.220892
949.826 3.104828
950.55 3.250176
951.274 0.105086
951.998 0.746708
952.723 -0.222766
953.447 0.129610
954.171 -1.450301
954.896 0.389588
955.62 0.126411
956.345 0.289199
957.07 -0.247849
957.794 -0.095242
958.519 0.599467
959.244 3.145818
959.969 -0.484394
960.694 0.235131
961.419 -0.116903
962.144 -0.193857
962.869 -0.442934
963.594 0.210622
964.32 -0.107278
965.045 0.104601
965.77 0.661349
966.496 -0.375713
967.222 0.063669
967.947 0.392871
968.673 -0.119513
969.399 1.104135
970.125 -0.048061
970.85 0.613207
971.576 -0.448874
972.302 0.460833
973.028 3.206826
973.755 0.261361
974.481 0.115711
975.207 0.570935
975.933 -0.193966
976.66 -0.098200
977.386 -0.476079
978.113 -0.449899
978.839 -0.025153
979.566 2.663701
980.293 0.646872
981.019 1.474063
981.746 -1.256649
982.473 0.615076
983.2 -0.057325
983.927 0.245982
984.654 0.743389
985.381 3.229170
986.109 -2.017033
986.836 3.142702
987.563 -0.474228
988.291 2.760422
989.018 1.513218
989.746 -0.730454
990.473 -0.031104
991.201 2.745075
991.928 -3.210051
992.656 -0.031179
993.384 -0.231493
994.112 2.806180
994.84 0.000000
995.568 -0.119956
996.296 -0.013990
997.024 -0.503450
997.752 0.545922
998.481 1.611667
999.209 -1.792392
999.937 2.318063
1000.67 0.546221
1001.39 -0.240801
1002.12 0.119947
1002.85 -0.134380
1003.58 -3.155943
1004.31 -0.134975
1005.04 3.129368
1005.77 -0.338967
1006.5 2.812913
1007.22 -0.433503
1007.95 0.318113
1008.68 -0.561130
1009.41 -2.017033
1010.14 -0.782668
1010.87 3.165244
1011.6 -1.163284
1012.33 0.004321
1013.06 -2.985875
1013.79 -0.107411
1014.52 0.423979
1015.25 0.540843
1015.98 2.450249
1016.71 -0.756121
1017.44 0.162619
1018.17 3.231724
1018.9 3.021603
1019.63 0.327602
1020.36 2.575188
1021.09 1.270096
1021.82 -2.720159
1022.55 2.902003
1023.03 2.812913