File: Auto_Polymerization/Data/UV_VIS_Spectra/MRG-061-G- spectra_G1_G2_after_aminolysis/MRG-061-G-2_after_aminolysis_spectrum_2025-06-20_14-49-28_absorbance.txt
# Wavelength	Absorbance
197.78 -0.233077
198.392 2.682145
199.004 -0.163872
199.617 2.768638
200.229 -0.647706
200.842 0.248790
201.455 3.220892
202.067 2.760422
202.68 0.488913
203.294 -0.366524
203.907 -1.001905
204.52 0.020382
205.134 0.678798
205.748 -0.470143
206.361 -3.042576
206.975 0.335425
207.589 -1.690196
208.204 0.672281
208.818 -0.656744
209.433 0.060993
210.047 -0.305836
210.662 0.327837
211.277 -0.367132
211.892 -0.130653
212.507 0.403603
213.122 -0.150746
213.738 0.179247
214.353 0.000000
214.969 -0.397499
215.585 0.154990
216.201 -0.406274
216.817 0.027604
217.433 2.536558
218.049 0.000000
218.666 0.442381
219.282 -0.019512
219.899 0.614428
220.516 -2.414973
221.133 0.228982
221.75 -0.158868
222.368 0.534886
222.985 -3.152288
223.603 -0.410118
224.22 -0.025439
224.838 2.890421
225.456 -0.307734
226.074 -0.544791
226.692 -3.132260
227.311 0.575376
227.929 0.525312
228.548 0.917895
229.167 0.000000
229.786 -0.104284
230.405 -0.451186
231.024 0.162880
231.643 2.718502
232.262 3.280123
232.882 0.305417
233.501 -0.058943
234.121 -2.940018
234.741 0.000347
235.361 0.707570
235.982 0.223836
236.602 -2.610660
237.222 -0.180529
237.843 -1.223558
238.464 3.063333
239.084 -2.872156
239.706 -0.590811
240.327 -1.271467
240.948 -0.008792
241.569 -0.652199
242.191 3.206826
242.812 -0.583430
243.434 -0.137869
244.056 -3.139249
244.678 -0.056823
245.3 -0.907119
245.923 -0.056302
246.545 -0.379775
247.167 0.244562
247.79 -1.189129
248.413 -0.231748
249.036 0.468307
249.659 0.212110
250.282 0.680288
250.906 2.480007
251.529 2.008600
252.153 0.995123
252.776 -0.378034
253.4 2.935003
254.024 2.872739
254.648 -0.369872
255.273 0.190193
255.897 0.320077
256.521 -0.102050
257.146 -0.187902
257.771 -3.234264
258.396 1.123744
259.021 0.463832
259.646 0.422408
260.271 0.111974
260.897 0.227138
261.522 3.142702
262.148 -0.233601
262.774 0.274954
263.399 -0.171572
264.026 -0.236258
264.652 3.097604
265.278 -0.092087
265.904 -0.146406
266.531 2.294466
267.158 -0.095663
267.784 -0.667782
268.411 -0.329033
269.038 -0.748305
269.666 -0.024223
270.293 -2.806180
270.921 -0.277814
271.548 -0.573089
272.176 0.517187
272.804 0.277310
273.432 0.012956
274.06 0.313503
274.688 0.377375
275.316 -0.224517
275.945 -0.042502
276.573 0.112565
277.202 0.107257
277.831 1.069377
278.46 0.063351
279.089 0.732924
279.718 0.238542
280.348 2.632457
280.977 -0.194915
281.607 0.000000
282.237 -0.271553
282.866 0.376717
283.497 0.112045
284.127 -1.493358
284.757 0.064769
285.387 -2.872156
286.018 0.059982
286.648 -0.020430
287.279 0.136838
287.91 -0.461250
288.541 0.434399
289.172 -3.074816
289.803 -3.234264
290.435 -3.034227
291.067 -0.228254
291.698 2.768638
292.33 0.704513
292.962 -3.244772
293.594 0.700291
294.226 -2.859739
294.858 0.075686
295.491 -2.673021
296.123 3.247728
296.756 0.068604
297.389 2.935003
298.022 3.149219
298.654 3.177536
299.288 -2.653213
299.921 0.217484
300.554 -0.470172
301.188 0.493827
301.822 3.364739
302.455 0.444392
303.089 -0.252725
303.723 2.924279
304.357 -0.609606
304.992 -0.290199
305.626 -0.154240
306.261 1.001934
306.895 -0.097833
307.53 0.246690
308.165 -2.190332
308.8 0.907122
309.435 -0.702039
310.07 0.210491
310.706 3.168203
311.341 -0.033359
311.977 0.580409
312.613 3.012837
313.249 1.641838
313.885 -0.114491
314.521 0.494168
315.157 3.362859
315.793 -0.307734
316.43 0.962882
317.067 1.085047
317.703 3.336260
318.34 0.719206
318.977 0.395017
319.614 0.999506
320.252 0.085402
320.889 2.465383
321.526 0.620825
322.164 0.098353
322.802 0.293540
323.44 0.325835
324.078 0.639554
324.716 0.382121
325.354 0.360269
325.992 0.538735
326.631 0.970834
327.269 1.226641
327.908 3.508395
328.547 0.246991
329.186 0.335398
329.825 1.640055
330.464 1.968102
331.104 0.619057
331.743 1.021586
332.383 3.520876
333.022 0.270296
333.662 3.609381
334.302 1.152810
334.942 0.697537
335.582 3.640879
336.223 0.758826
336.863 0.746634
337.504 0.672967
338.144 0.841019
338.785 3.703205
339.426 0.878360
340.067 0.698812
340.708 0.456177
341.349 0.414667
341.991 0.870219
342.632 0.647191
343.274 2.979938
343.916 1.833980
344.558 1.014673
345.2 1.124367
345.842 3.870521
346.484 0.680605
347.126 0.965993
347.769 3.886321
348.411 0.722207
349.054 1.389527
349.697 1.268422
350.34 0.667889
350.983 3.917820
351.626 0.920690
352.27 3.959471
352.913 0.897726
353.557 0.669403
354.2 1.110697
354.844 0.729219
355.488 1.213164
356.132 0.856863
356.776 0.779258
357.421 3.988202
358.065 2.146837
358.709 2.167781
359.354 3.988202
359.999 1.369753
360.644 0.974323
361.289 4.042142
361.934 1.472765
362.579 0.818073
363.224 4.031206
363.87 1.132190
364.515 2.204004
365.161 0.681716
365.807 0.669767
366.453 1.222588
367.099 1.887291
367.745 1.526967
368.392 1.205875
369.038 1.517716
369.685 1.218420
370.331 0.863583
370.978 4.107990
371.625 1.002045
372.272 1.182574
372.919 1.248121
373.566 4.154637
374.214 1.423644
374.861 1.718611
375.509 4.212241
376.156 4.224455
376.804 0.848756
377.452 1.854843
378.1 1.447085
378.748 1.525381
379.397 1.939791
380.045 4.285760
380.694 1.108161
381.342 1.155012
381.991 1.024423
382.64 1.042918
383.289 4.351042
383.938 2.494373
384.587 1.452817
385.237 4.356332
385.886 1.707532
386.536 1.923266
387.186 1.087043
387.836 1.834063
388.485 1.518531
389.135 1.810384
389.786 1.146313
390.436 2.072371
391.086 1.408150
391.737 2.177946
392.387 1.398505
393.038 1.275871
393.689 1.555093
394.34 4.463997
394.991 1.989005
395.642 1.912433
396.294 1.688328
396.945 1.822782
397.597 4.514322
398.248 1.471504
398.9 1.345558
399.552 1.489014
400.204 4.525938
400.856 1.376641
401.509 1.919219
402.161 4.519198
402.813 1.285129
403.466 1.455439
404.119 1.279426
404.772 1.741570
405.425 1.390664
406.078 1.364584
406.731 1.987877
407.384 1.337074
408.038 1.210224
408.691 1.512611
409.345 1.436205
409.998 1.430849
410.652 1.194174
411.306 1.112524
411.961 1.368837
412.615 1.030966
413.269 1.152079
413.923 1.244146
414.578 1.175820
415.233 1.259064
415.887 1.149207
416.542 1.112130
417.197 1.106785
417.852 1.305139
418.508 1.291205
419.163 0.948666
419.818 1.058368
420.474 0.972785
421.13 1.080562
421.786 1.015737
422.442 0.987473
423.098 0.975654
423.754 1.002914
424.41 0.866937
425.066 0.757867
425.723 0.859953
426.379 0.858978
427.036 0.872899
427.693 0.872218
428.35 0.816897
429.007 0.748376
429.664 0.722076
430.321 0.708425
430.979 0.736116
431.636 0.710473
432.294 0.658519
432.952 0.664218
433.609 0.666741
434.267 0.634815
434.925 0.658365
435.584 0.541488
436.242 0.556453
436.9 0.517439
437.559 0.532238
438.217 0.495225
438.876 0.451874
439.535 0.483999
440.194 0.501057
440.853 0.437711
441.512 0.489490
442.171 0.489918
442.831 0.449025
443.49 0.476259
444.15 0.437917
444.81 0.435176
445.469 0.419360
446.129 0.406977
446.789 0.389094
447.45 0.405672
448.11 0.342783
448.77 0.378333
449.431 0.387809
450.091 0.360233
450.752 0.329976
451.413 0.376722
452.074 0.307078
452.735 0.324610
453.396 0.309684
454.057 0.323925
454.719 0.328784
455.38 0.322362
456.042 0.309668
456.704 0.258137
457.365 0.277348
458.027 0.292611
458.689 0.272337
459.352 0.259746
460.014 0.282274
460.676 0.263899
461.339 0.287189
462.001 0.271047
462.664 0.298593
463.327 0.276375
463.99 0.254258
464.653 0.247196
465.316 0.261102
465.979 0.247728
466.642 0.261597
467.306 0.265741
467.97 0.250477
468.633 0.243251
469.297 0.241968
469.961 0.221332
470.625 0.234457
471.289 0.227178
471.953 0.207099
472.618 0.254949
473.282 0.274764
473.947 0.262916
474.611 0.230321
475.276 0.236124
475.941 0.251903
476.606 0.212213
477.271 0.236496
477.936 0.224463
478.602 0.229916
479.267 0.232488
479.933 0.193952
480.598 0.237458
481.264 0.239904
481.93 0.233088
482.596 0.194634
483.262 0.219926
483.928 0.202686
484.594 0.197626
485.261 0.195635
485.927 0.221333
486.594 0.238336
487.26 0.236220
487.927 0.219732
488.594 0.215081
489.261 0.204128
489.928 0.214280
490.596 0.231893
491.263 0.176718
491.93 0.213579
492.598 0.204655
493.266 0.241744
493.933 0.205395
494.601 0.231619
495.269 0.220917
495.937 0.219836
496.606 0.208391
497.274 0.205580
497.942 0.255973
498.611 0.167089
499.279 0.190572
499.948 0.207493
500.617 0.188985
501.286 0.220684
501.955 0.212004
502.624 0.211756
503.293 0.200950
503.963 0.204784
504.632 0.183709
505.302 0.219702
505.972 0.181197
506.641 0.214296
507.311 0.195433
507.981 0.223593
508.651 0.192292
509.322 0.233007
509.992 0.233179
510.662 0.179535
511.333 0.180605
512.004 0.192459
512.674 0.205257
513.345 0.195032
514.016 0.198892
514.687 0.170650
515.358 0.202607
516.029 0.233912
516.701 0.206855
517.372 0.221203
518.044 0.230743
518.716 0.173281
519.387 0.237065
520.059 0.203551
520.731 0.206767
521.403 0.221144
522.076 0.194552
522.748 0.210019
523.42 0.199327
524.093 0.201179
524.765 0.235361
525.438 0.203954
526.111 0.223125
526.784 0.205701
527.457 0.217574
528.13 0.220329
528.803 0.198849
529.476 0.195156
530.15 0.177705
530.823 0.191655
531.497 0.193997
532.171 0.184739
532.845 0.180581
533.519 0.200878
534.193 0.215987
534.867 0.176580
535.541 0.175562
536.216 0.171048
536.89 0.189718
537.564 0.189089
538.239 0.226980
538.914 0.193294
539.589 0.211343
540.264 0.186183
540.939 0.182247
541.614 0.200531
542.289 0.201814
542.965 0.199809
543.64 0.203431
544.316 0.199991
544.991 0.189324
545.667 0.199166
546.343 0.216230
547.019 0.188011
547.695 0.174499
548.371 0.192462
549.048 0.195931
549.724 0.214274
550.401 0.182289
551.077 0.165215
551.754 0.212302
552.431 0.187335
553.108 0.203729
553.785 0.169488
554.462 0.190494
555.139 0.200469
555.816 0.198192
556.494 0.210420
557.171 0.215570
557.849 0.178002
558.527 0.175881
559.204 0.191399
559.882 0.175797
560.56 0.176775
561.238 0.181081
561.917 0.184148
562.595 0.181959
563.273 0.198034
563.952 0.175966
564.63 0.186629
565.309 0.211274
565.988 0.170518
566.667 0.188862
567.346 0.181947
568.025 0.175490
568.704 0.196518
569.384 0.160407
570.063 0.162533
570.742 0.175372
571.422 0.180018
572.102 0.184810
572.782 0.194037
573.462 0.185084
574.141 0.180987
574.822 0.170160
575.502 0.190160
576.182 0.196790
576.863 0.182359
577.543 0.189029
578.224 0.187850
578.904 0.182923
579.585 0.178076
580.266 0.179737
580.947 0.177622
581.628 0.174897
582.309 0.173767
582.991 0.176734
583.672 0.178539
584.354 0.180963
585.035 0.177021
585.717 0.169227
586.399 0.171726
587.08 0.173341
587.762 0.171562
588.444 0.174058
589.127 0.176512
589.809 0.187673
590.491 0.187863
591.174 0.191009
591.856 0.189312
592.539 0.167431
593.222 0.177487
593.905 0.172348
594.587 0.159525
595.27 0.172740
595.954 0.172650
596.637 0.180765
597.32 0.177394
598.004 0.180412
598.687 0.171352
599.371 0.181456
600.055 0.182741
600.738 0.172248
601.422 0.158264
602.106 0.175942
602.79 0.178735
603.475 0.171261
604.159 0.172186
604.843 0.174329
605.528 0.164180
606.212 0.159808
606.897 0.152729
607.582 0.162912
608.267 0.160394
608.952 0.161334
609.637 0.170852
610.322 0.161128
611.007 0.162804
611.693 0.168517
612.378 0.164261
613.064 0.176739
613.749 0.173236
614.435 0.162741
615.121 0.161833
615.807 0.150079
616.493 0.162201
617.179 0.145996
617.865 0.163152
618.552 0.136366
619.238 0.162610
619.924 0.165916
620.611 0.137605
621.298 0.164204
621.985 0.154683
622.671 0.170246
623.358 0.176136
624.045 0.162278
624.733 0.143448
625.42 0.140372
626.107 0.153198
626.795 0.168194
627.482 0.167591
628.17 0.162557
628.858 0.158428
629.545 0.142516
630.233 0.150570
630.921 0.156803
631.609 0.156048
632.298 0.155264
632.986 0.156327
633.674 0.142307
634.363 0.152560
635.051 0.186597
635.74 0.161910
636.429 0.159187
637.118 0.150408
637.807 0.175949
638.496 0.160806
639.185 0.143375
639.874 0.164843
640.563 0.132333
641.253 0.175484
641.942 0.129959
642.632 0.151240
643.322 0.125240
644.011 0.167956
644.701 0.112417
645.391 0.162855
646.081 0.097567
646.771 0.117160
647.462 0.188195
648.152 0.155570
648.842 0.164088
649.533 0.147409
650.224 0.154796
650.914 0.152724
651.605 0.182088
652.296 0.136514
652.987 0.152216
653.678 0.148764
654.369 0.154677
655.061 0.205835
655.752 0.157920
656.443 0.017421
657.135 0.162979
657.826 0.173676
658.518 0.179970
659.21 0.218124
659.902 0.261251
660.594 0.187964
661.286 0.170812
661.978 0.110589
662.67 0.135390
663.363 0.136365
664.055 0.135053
664.748 0.158810
665.44 0.141612
666.133 0.117772
666.826 0.164162
667.519 0.082362
668.212 0.123856
668.905 0.103182
669.598 0.156044
670.291 0.139959
670.985 0.135203
671.678 0.169579
672.372 0.152343
673.065 0.117398
673.759 0.125689
674.453 0.138818
675.147 0.150664
675.841 0.164462
676.535 0.131134
677.229 0.142026
677.923 0.111931
678.617 0.128107
679.312 0.178598
680.006 0.143400
680.701 0.153077
681.396 0.167099
682.091 0.140422
682.785 0.143663
683.48 0.125801
684.175 0.156138
684.87 0.152807
685.566 0.169302
686.261 0.161449
686.957 0.106441
687.652 0.126172
688.348 0.122364
689.043 0.153848
689.739 0.139618
690.435 0.126695
691.131 0.135863
691.827 0.153422
692.523 0.139245
693.219 0.125621
693.915 0.158141
694.612 0.170830
695.308 0.136812
696.005 0.160141
696.702 0.155727
697.398 0.155261
698.095 0.134858
698.792 0.129149
699.489 0.157102
700.186 0.122836
700.883 0.162593
701.581 0.163464
702.278 0.168061
702.975 0.108342
703.673 0.171223
704.37 0.103899
705.068 0.125907
705.766 0.124677
706.464 0.167929
707.162 0.082871
707.86 0.163931
708.558 0.132849
709.256 0.157180
709.955 0.170885
710.653 0.075297
711.351 0.106074
712.05 0.100019
712.749 0.113433
713.447 0.088668
714.146 0.118897
714.845 0.143987
715.544 0.154927
716.243 0.129898
716.942 0.147049
717.642 0.105195
718.341 0.150742
719.04 0.150562
719.74 0.125997
720.439 0.120412
721.139 0.089284
721.839 0.142205
722.539 0.134929
723.239 0.111480
723.939 0.100512
724.639 0.149281
725.339 0.151180
726.039 0.146948
726.74 0.157018
727.44 0.126157
728.141 0.142449
728.841 0.111663
729.542 0.127370
730.243 0.117819
730.944 0.133601
731.645 0.119044
732.346 0.147498
733.047 0.147712
733.748 0.125850
734.449 0.140516
735.151 0.137342
735.852 0.153460
736.554 0.175454
737.256 0.139569
737.957 0.121177
738.659 0.169172
739.361 0.157765
740.063 0.097692
740.765 0.143842
741.467 0.136419
742.169 0.120953
742.872 0.117957
743.574 0.118595
744.277 0.118235
744.979 0.194421
745.682 0.075075
746.385 0.152863
747.087 0.152592
747.79 0.137951
748.493 0.115754
749.196 0.102001
749.899 0.164840
750.603 0.087829
751.306 0.168654
752.01 0.107677
752.713 0.162307
753.417 0.125325
754.12 0.135930
754.824 0.111891
755.528 0.146810
756.232 0.136306
756.936 0.129838
757.64 0.135884
758.344 0.155432
759.048 0.139771
759.752 0.131415
760.457 0.157539
761.161 0.126972
761.866 0.180410
762.571 0.150474
763.275 0.103051
763.98 0.141053
764.685 0.130077
765.39 0.124724
766.095 0.145394
766.8 0.113439
767.505 0.137635
768.211 0.139494
768.916 0.161309
769.621 0.137021
770.327 0.106287
771.033 0.088305
771.738 0.140905
772.444 0.147497
773.15 0.092467
773.856 0.148501
774.562 0.151825
775.268 0.129273
775.974 0.134418
776.68 0.121722
777.387 0.150551
778.093 0.132674
778.8 0.120628
779.506 0.119094
780.213 0.150506
780.92 0.132728
781.626 0.111546
782.333 0.137224
783.04 0.112666
783.747 0.141187
784.455 0.171846
785.162 0.123247
785.869 0.133521
786.577 0.095027
787.284 0.147694
787.992 0.162365
788.699 0.130753
789.407 0.078591
790.115 0.120798
790.823 0.128955
791.531 0.137152
792.239 0.149827
792.947 0.079544
793.655 0.146300
794.363 0.124304
795.072 0.165343
795.78 0.132744
796.489 0.170412
797.197 0.153739
797.906 0.166085
798.615 0.143503
799.323 0.131931
800.032 0.136111
800.741 0.118334
801.45 0.180667
802.159 0.149755
802.869 0.092344
803.578 0.161419
804.287 0.182494
804.997 0.169070
805.706 0.159118
806.416 0.117825
807.126 0.117677
807.835 0.097888
808.545 0.101433
809.255 0.108934
809.965 0.124801
810.675 0.129505
811.385 0.079998
812.096 0.091596
812.806 0.142244
813.516 0.125705
814.227 0.128768
814.937 0.142883
815.648 0.070598
816.359 0.157770
817.069 0.116903
817.78 0.103127
818.491 0.055560
819.202 0.116615
819.913 0.132648
820.624 0.215327
821.336 0.173387
822.047 0.146366
822.758 0.132792
823.47 0.148578
824.181 0.138901
824.893 0.138596
825.605 0.099419
826.317 0.108962
827.028 0.141564
827.74 0.140338
828.452 0.192474
829.164 0.039982
829.876 0.057236
830.589 0.084267
831.301 0.109096
832.013 0.110173
832.726 0.093324
833.438 0.060570
834.151 0.136218
834.864 0.199211
835.577 0.076618
836.289 0.225530
837.002 0.181175
837.715 0.066098
838.428 0.067536
839.141 0.313358
839.855 0.187171
840.568 0.091080
841.281 0.089619
841.995 0.006234
842.708 0.107124
843.422 0.094094
844.135 0.337381
844.849 0.042350
845.563 0.183641
846.277 0.060684
846.991 -0.002757
847.705 0.072206
848.419 0.020411
849.133 0.160635
849.847 0.047382
850.562 0.142309
851.276 0.031438
851.991 0.099272
852.705 0.055791
853.42 0.122547
854.135 0.140337
854.85 0.141988
855.564 0.143536
856.279 0.131627
856.994 0.128945
857.709 0.138933
858.424 0.086491
859.14 0.093457
859.855 0.051607
860.57 0.104639
861.286 0.140741
862.001 -0.039996
862.717 0.123500
863.433 0.143922
864.148 -0.015626
864.864 0.073016
865.58 0.067642
866.296 0.053224
867.012 0.045174
867.728 -0.176883
868.444 0.063783
869.161 0.172126
869.877 0.137334
870.593 0.192114
871.31 0.384121
872.026 0.049743
872.743 -0.023558
873.46 0.108898
874.176 0.071588
874.893 0.132276
875.61 0.109561
876.327 0.090859
877.044 0.045867
877.761 0.203739
878.478 0.091287
879.196 0.259387
879.913 0.151734
880.63 0.077835
881.348 0.067490
882.065 0.052496
882.783 0.175378
883.501 0.184737
884.218 0.053413
884.936 0.135739
885.654 0.122432
886.372 0.051965
887.09 0.025463
887.808 0.097367
888.527 0.037603
889.245 0.102223
889.963 0.256456
890.682 0.078068
891.4 -0.008663
892.119 0.082434
892.837 0.244764
893.556 0.127105
894.275 0.193999
894.994 0.184853
895.712 0.164753
896.431 0.288136
897.15 0.162805
897.87 0.031164
898.589 0.285767
899.308 0.000167
900.027 -0.109502
900.747 0.033365
901.466 0.056094
902.186 0.116473
902.905 0.276423
903.625 0.116378
904.345 -0.012806
905.064 0.151072
905.784 0.076942
906.504 0.042161
907.224 0.114660
907.944 0.025124
908.664 0.136479
909.385 0.191271
910.105 0.056006
910.825 0.171064
911.546 0.197677
912.266 0.200896
912.987 -0.008101
913.707 -0.046122
914.428 -0.062881
915.149 0.139211
915.87 0.244607
916.591 0.074719
917.312 0.057659
918.033 0.201616
918.754 0.134489
919.475 0.190244
920.196 0.039398
920.918 0.120384
921.639 0.191414
922.361 0.191218
923.082 1.024056
923.804 0.283159
924.525 0.073308
925.247 -0.092221
925.969 0.250076
926.691 0.230576
927.413 0.024013
928.135 0.346181
928.857 0.085067
929.579 0.203505
930.301 0.649036
931.023 0.911248
931.746 0.024786
932.468 0.327241
933.191 0.164837
933.913 0.239897
934.636 -0.224380
935.358 0.279482
936.081 -0.022715
936.804 0.172330
937.527 0.320572
938.25 0.310378
938.973 0.133732
939.696 -0.032724
940.419 -0.132154
941.142 0.169521
941.865 0.165161
942.589 0.113604
943.312 0.272232
944.036 0.286189
944.759 0.557856
945.483 3.272770
946.207 -0.364973
946.93 -0.849928
947.654 -0.032648
948.378 0.608081
949.102 0.313481
949.826 0.257873
950.55 -0.019804
951.274 -0.060060
951.998 0.067771
952.723 -0.066684
953.447 0.118698
954.171 -1.354629
954.896 -0.281188
955.62 0.024370
956.345 -0.162396
957.07 3.067071
957.794 -0.041645
958.519 -0.129225
959.244 0.513360
959.969 -0.233734
960.694 -0.206403
961.419 -0.381015
962.144 -0.186718
962.869 0.670113
963.594 0.409193
964.32 3.145818
965.045 -0.121110
965.77 -0.035304
966.496 -0.682848
967.222 -0.305465
967.947 -0.265743
968.673 -0.037044
969.399 0.049571
970.125 0.038629
970.85 0.415651
971.576 -0.248165
972.302 0.275950
973.028 0.386624
973.755 3.218010
974.481 -0.097153
975.207 0.125468
975.933 0.608186
976.66 -0.100484
977.386 -0.483839
978.113 2.776701
978.839 3.206826
979.566 -0.208455
980.293 3.008600
981.019 0.099604
981.746 -1.294151
982.473 0.372366
983.2 -0.186909
983.927 -0.403604
984.654 0.915324
985.381 0.178017
986.109 -2.872156
986.836 0.224148
987.563 -0.026838
988.291 -0.371837
989.018 0.281493
989.746 0.278754
990.473 0.159533
991.201 -0.380406
991.928 -3.042576
992.656 0.327883
993.384 0.459310
994.112 -0.478476
994.84 -3.008174
995.568 -0.304414
996.296 -0.385085
997.024 -0.365755
997.752 0.809597
998.481 0.279761
999.209 0.000000
999.937 2.318063
1000.67 2.907949
1001.39 2.745075
1002.12 0.229446
1002.85 -0.085847
1003.58 -2.859739
1004.31 -0.199223
1005.04 3.129368
1005.77 -0.334692
1006.5 -0.148033
1007.22 -0.180572
1007.95 0.175316
1008.68 0.081305
1009.41 -3.074816
1010.14 2.432969
1010.87 0.039763
1011.6 1.591065
1012.33 2.907411
1013.06 -1.690196
1013.79 3.108227
1014.52 0.221948
1015.25 0.287304
1015.98 -0.548881
1016.71 -0.921267
1017.44 2.562293
1018.17 0.599267
1018.9 0.187818
1019.63 0.760520
1020.36 -0.012523
1021.09 0.777927
1021.82 0.000000
1022.55 0.269546
1023.03 0.021925