File: Auto_Polymerization/Data/UV_VIS_Spectra/MRG-061-G- spectra_G1_G2_after_aminolysis/MRG-061-G-2_after_aminolysis_spectrum_2025-06-20_14-49-28.txt
# Wavelength (nm)	Intensity (a.u.)
197.7802	0.001293
198.3922	-0.001427
199.0044	0.001209
199.6168	-0.000014
200.2292	0.001293
200.8418	0.000450
201.4546	-0.000541
202.0674	-0.000626
202.6805	0.000218
203.2936	0.001293
203.9069	0.000914
204.5203	0.001103
205.1338	0.000260
205.7475	0.001420
206.3614	0.001103
206.9753	0.000091
207.5894	0.000049
208.2036	0.000302
208.8180	0.001420
209.4325	0.000703
210.0471	0.001272
210.6618	0.000534
211.2767	0.001884
211.8918	0.000408
212.5069	0.000640
213.1222	0.001040
213.7376	0.000640
214.3532	-0.000541
214.9689	0.001968
215.5847	0.000492
216.2007	0.001631
216.8168	0.000640
217.4330	-0.000098
218.0494	-0.000330
218.6659	0.000555
219.2825	0.000956
219.8992	0.000450
220.5161	0.000260
221.1332	0.000471
221.7503	0.002200
222.3676	0.000239
222.9850	0.001420
223.6026	0.001103
224.2203	0.000914
224.8381	-0.000183
225.4561	0.000914
226.0742	0.001504
226.6924	0.001356
227.3107	0.000344
227.9292	0.000534
228.5478	0.000155
229.1666	-0.000309
229.7855	0.000787
230.4045	0.000260
231.0236	0.000534
231.6429	-0.000520
232.2623	-0.000077
232.8818	0.000197
233.5015	0.000914
234.1213	0.000871
234.7413	0.001251
235.3613	0.000260
235.9815	0.000218
236.6018	0.000408
237.2223	0.001082
237.8429	0.001188
238.4636	-0.000752
239.0845	0.000745
239.7055	0.001715
240.3266	0.002896
240.9478	0.000998
241.5692	0.001926
242.1907	-0.000246
242.8124	0.001483
243.4341	0.001125
244.0560	0.001378
244.6781	0.001378
245.3002	0.001841
245.9225	0.001209
246.5449	0.000597
247.1675	0.000935
247.7902	0.001082
248.4130	0.001272
249.0359	0.000365
249.6590	0.000956
250.2822	0.000323
250.9056	-0.000604
251.5290	-0.000752
252.1526	0.000197
252.7763	0.000597
253.4002	-0.000077
254.0242	-0.000562
254.6483	0.001378
255.2725	0.000808
255.8969	0.000513
256.5214	0.000850
257.1460	0.001230
257.7708	0.001715
258.3957	0.000091
259.0207	0.000365
259.6459	0.000597
260.2711	0.000323
260.8965	0.001061
261.5221	-0.000541
262.1477	0.001673
262.7735	0.000429
263.3995	0.002390
264.0255	0.000429
264.6517	-0.000077
265.2780	0.001209
265.9044	0.001251
266.5310	-0.000014
267.1577	0.000956
267.7845	0.001652
268.4114	0.002242
269.0385	0.000745
269.6657	0.000977
270.2931	0.000640
270.9205	0.001293
271.5481	0.001841
272.1758	0.000576
272.8037	0.000555
273.4316	0.001420
274.0597	0.000429
274.6880	0.000640
275.3163	0.001905
275.9448	0.001019
276.5734	0.000534
277.2022	0.000871
277.8310	0.000112
278.4600	0.000745
279.0891	0.000091
279.7184	0.001082
280.3477	-0.000879
280.9772	0.001167
281.6069	-0.000309
282.2366	0.001609
282.8665	0.000260
283.4965	0.000829
284.1266	0.000218
284.7569	0.000914
285.3873	0.000745
286.0178	0.001715
286.6484	0.000914
287.2792	0.000513
287.9101	0.001209
288.5411	0.000829
289.1723	0.001188
289.8035	0.001715
290.4349	0.001082
291.0665	0.002368
291.6981	-0.000689
292.3299	0.000218
292.9618	0.001757
293.5938	0.000197
294.2260	0.000724
294.8582	0.000998
295.4906	0.000471
296.1232	-0.000879
296.7558	0.001420
297.3886	-0.000077
298.0215	-0.000499
298.6545	-0.000014
299.2877	0.000450
299.9210	0.001040
300.5544	0.001736
301.1879	0.000408
301.8215	-0.000014
302.4553	0.000450
303.0892	0.000408
303.7233	-0.000014
304.3574	0.001103
304.9917	0.001188
305.6261	0.000281
306.2606	0.000112
306.8953	0.000471
307.5301	0.000829
308.1650	0.000155
308.8000	0.000134
309.4351	0.001420
310.0704	0.000829
310.7058	-0.000520
311.3413	0.002137
311.9770	0.000365
312.6127	-0.000372
313.2486	0.000049
313.8846	0.001588
314.5208	0.000408
315.1570	-0.000077
315.7934	0.000914
316.4299	0.000365
317.0666	0.000239
317.7033	-0.000098
318.3402	0.000239
318.9772	0.001103
319.6143	0.000176
320.2516	0.001652
320.8890	-0.000056
321.5265	0.000787
322.1641	0.001082
322.8018	0.001082
323.4397	0.001293
324.0777	0.000829
324.7158	0.001040
325.3540	0.001673
325.9924	0.000597
326.6308	0.000408
327.2694	0.000155
327.9082	-0.000162
328.5470	0.002453
329.1860	0.001694
329.8251	0.000070
330.4643	0.000049
331.1036	0.000808
331.7431	0.000365
332.3826	-0.000921
333.0223	0.002115
333.6622	-0.000035
334.3021	0.000387
334.9422	0.000850
335.5823	-0.000457
336.2227	0.000808
336.8631	0.000850
337.5036	0.000998
338.1443	0.000871
338.7851	-0.000309
339.4260	0.000682
340.0670	0.001103
340.7082	0.001947
341.3495	0.002073
341.9909	0.000914
342.6324	0.001525
343.2740	0.000007
343.9158	0.000091
344.5577	0.000745
345.1997	0.000513
345.8418	-0.000900
346.4840	0.001652
347.1264	0.000871
347.7689	-0.000162
348.4115	0.001441
349.0542	0.000344
349.6971	0.000450
350.3400	0.001862
350.9831	-0.000372
351.6263	0.001082
352.2696	-0.000689
352.9131	0.000998
353.5566	0.002115
354.2003	0.000661
354.8441	0.001841
355.4881	0.000597
356.1321	0.001441
356.7763	0.001567
357.4206	-0.000204
358.0650	0.000070
358.7095	0.000070
359.3541	-0.000288
359.9989	0.000387
360.6438	0.001019
361.2888	-0.000267
361.9339	0.000344
362.5791	0.001757
363.2245	-0.000351
363.8699	0.000787
364.5155	0.000070
365.1612	0.002326
365.8071	0.002242
366.4530	0.000787
367.0991	0.000155
367.7453	0.000387
368.3916	0.000787
369.0380	0.000429
369.6845	0.000829
370.3312	0.001715
370.9780	-0.000942
371.6249	0.001441
372.2719	0.000829
372.9190	0.000745
373.5663	-0.000077
374.2136	0.000555
374.8611	0.000281
375.5087	-0.000794
376.1564	-0.000056
376.8043	0.002432
377.4522	0.000260
378.1003	0.000640
378.7485	0.000597
379.3968	0.000239
380.0452	-0.000351
380.6938	0.001483
381.3424	0.001462
381.9912	0.001905
382.6401	0.001989
383.2891	-0.000288
383.9382	0.000070
384.5875	0.000787
385.2368	-0.000836
385.8863	0.000450
386.5359	0.000281
387.1856	0.001884
387.8355	0.000365
388.4854	0.000766
389.1355	0.000408
389.7856	0.001841
390.4359	0.000218
391.0863	0.001061
391.7369	0.000176
392.3875	0.001167
393.0383	0.001631
393.6891	0.000829
394.3401	-0.000351
394.9912	0.000302
395.6425	0.000365
396.2938	0.000618
396.9453	0.000492
397.5968	-0.000520
398.2485	0.001188
398.9003	0.001631
399.5522	0.001125
400.2043	-0.000604
400.8564	0.001420
401.5087	0.000408
402.1610	-0.000626
402.8135	0.001694
403.4661	0.001167
404.1189	0.001799
404.7717	0.000640
405.4246	0.001483
406.0777	0.001588
406.7309	0.000344
407.3842	0.001504
408.0376	0.002137
408.6911	0.001082
409.3448	0.001272
409.9985	0.001314
410.6524	0.002200
411.3064	0.002664
411.9605	0.001462
412.6147	0.003338
413.2690	0.002516
413.9234	0.002137
414.5780	0.002347
415.2326	0.001926
415.8874	0.002600
416.5423	0.002769
417.1973	0.002748
417.8524	0.001799
418.5077	0.001862
419.1630	0.004076
419.8185	0.003275
420.4741	0.004287
421.1298	0.003507
421.7856	0.004393
422.4415	0.004646
423.0975	0.004540
423.7536	0.004203
424.4099	0.005615
425.0663	0.007323
425.7228	0.005489
426.3793	0.005173
427.0361	0.005236
427.6929	0.005700
428.3498	0.006185
429.0068	0.007176
429.6640	0.008378
430.3213	0.009432
430.9787	0.008652
431.6362	0.008040
432.2938	0.008631
432.9515	0.008715
433.6093	0.009896
434.2673	0.011013
434.9253	0.009579
435.5835	0.012131
436.2418	0.012025
436.9001	0.013754
437.5586	0.012637
438.2173	0.013923
438.8760	0.015694
439.5348	0.014471
440.1938	0.014366
440.8528	0.016853
441.5120	0.018161
442.1713	0.017634
442.8307	0.018224
443.4902	0.017317
444.1498	0.020058
444.8095	0.019573
445.4694	0.020733
446.1293	0.020754
446.7894	0.022040
447.4496	0.020543
448.1098	0.022757
448.7702	0.020986
449.4307	0.021155
450.0914	0.022335
450.7521	0.024085
451.4129	0.020754
452.0739	0.024317
452.7349	0.022251
453.3961	0.023179
454.0574	0.021956
454.7188	0.020965
455.3803	0.022673
456.0419	0.023495
456.7036	0.024802
457.3654	0.025561
458.0274	0.026173
458.6894	0.027396
459.3516	0.027332
460.0138	0.027101
460.6762	0.026658
461.3387	0.026110
462.0013	0.025709
462.6640	0.023052
463.3268	0.025730
463.9897	0.028619
464.6528	0.030622
465.3159	0.030727
465.9792	0.033489
466.6425	0.028555
467.3060	0.026236
467.9696	0.027311
468.6333	0.027607
469.2970	0.025308
469.9610	0.024043
470.6250	0.024022
471.2891	0.024866
471.9533	0.025119
472.6177	0.024486
473.2821	0.025372
473.9467	0.026131
474.6113	0.027311
475.2761	0.028872
475.9410	0.026637
476.6060	0.029167
477.2711	0.026173
477.9363	0.029947
478.6016	0.028598
479.2670	0.028281
479.9325	0.031465
480.5982	0.031402
481.2639	0.029842
481.9298	0.030980
482.5957	0.032393
483.2618	0.031107
483.9280	0.032393
484.5943	0.036694
485.2606	0.038570
485.9271	0.113083
486.5937	0.077260
487.2605	0.058137
487.9273	0.036736
488.5942	0.032709
489.2612	0.033320
489.9284	0.032519
490.5956	0.029884
491.2630	0.034417
491.9304	0.031971
492.5980	0.032372
493.2657	0.029631
493.9334	0.032730
494.6013	0.031549
495.2693	0.030516
495.9374	0.030369
496.6056	0.035998
497.2739	0.033932
497.9423	0.027459
498.6109	0.033911
499.2795	0.034459
499.9482	0.033763
500.6171	0.033131
501.2860	0.033236
501.9551	0.032793
502.6242	0.034016
503.2935	0.034375
503.9628	0.033573
504.6323	0.033342
505.3019	0.031676
505.9716	0.032667
506.6414	0.032646
507.3113	0.030221
507.9813	0.029673
508.6514	0.031423
509.3216	0.027649
509.9919	0.028661
510.6623	0.031613
511.3329	0.032224
512.0035	0.031296
512.6742	0.028092
513.3451	0.029125
514.0160	0.028007
514.6871	0.029504
515.3582	0.026531
516.0295	0.025308
516.7008	0.027459
517.3723	0.026110
518.0439	0.024929
518.7155	0.026721
519.3873	0.025308
520.0592	0.025688
520.7312	0.023474
521.4033	0.023432
522.0755	0.023221
522.7478	0.022694
523.4202	0.022926
524.0927	0.024170
524.7653	0.021745
525.4380	0.023811
526.1108	0.021956
526.7837	0.023348
527.4568	0.023031
528.1299	0.022441
528.8031	0.025688
529.4765	0.026257
530.1499	0.025519
530.8234	0.025899
531.4971	0.023790
532.1708	0.024613
532.8447	0.026046
533.5186	0.027480
534.1927	0.027016
534.8668	0.030495
535.5411	0.030116
536.2155	0.028787
536.8899	0.025266
537.5645	0.027923
538.2392	0.026384
538.9139	0.029188
539.5888	0.028829
540.2638	0.029251
540.9389	0.029420
541.6140	0.028998
542.2893	0.030854
542.9647	0.030411
543.6402	0.030601
544.3158	0.032182
544.9915	0.033173
545.6673	0.031929
546.3432	0.029251
547.0192	0.030284
547.6953	0.034438
548.3715	0.036652
549.0478	0.034016
549.7242	0.030432
550.4007	0.030242
551.0773	0.031296
551.7540	0.028682
552.4308	0.035408
553.1077	0.032625
553.7847	0.036251
554.4618	0.032751
555.1390	0.031043
555.8163	0.033131
556.4937	0.034037
557.1712	0.030348
557.8488	0.033489
558.5266	0.031676
559.2044	0.029546
559.8823	0.031486
560.5603	0.037242
561.2384	0.039203
561.9166	0.038486
562.5949	0.037369
563.2733	0.036399
563.9519	0.038043
564.6305	0.040552
565.3092	0.038444
565.9880	0.041543
566.6669	0.040869
567.3459	0.049281
568.0250	0.053498
568.7043	0.058369
569.3836	0.074730
570.0630	0.095773
570.7425	0.096258
571.4221	0.111944
572.1018	0.121791
572.7816	0.103996
573.4615	0.119682
574.1415	0.137246
574.8216	0.149664
575.5018	0.146270
576.1821	0.130478
576.8626	0.150023
577.5431	0.158309
578.2237	0.194553
578.9044	0.161493
579.5851	0.161408
580.2660	0.164613
580.9470	0.161345
581.6281	0.252240
582.3093	0.240180
582.9906	0.183104
583.6720	0.149601
584.3535	0.147767
585.0351	0.173743
585.7167	0.181418
586.3985	0.154893
587.0804	0.160502
587.7624	0.169652
588.4445	0.151541
589.1266	0.129444
589.8089	0.117595
590.4913	0.106758
591.1737	0.093833
591.8563	0.093538
592.5389	0.113694
593.2217	0.149116
593.9046	0.141947
594.5875	0.127441
595.2705	0.144625
595.9537	0.126872
596.6369	0.104649
597.3203	0.108044
598.0037	0.103342
598.6872	0.114833
599.3709	0.131722
600.0546	0.128854
600.7384	0.128749
601.4223	0.133767
602.1064	0.119577
602.7905	0.121137
603.4747	0.134631
604.1590	0.125944
604.8434	0.110490
605.5279	0.117237
606.2125	0.123161
606.8972	0.112303
607.5819	0.115086
608.2668	0.106547
608.9518	0.102330
609.6369	0.091956
610.3220	0.108740
611.0073	0.098577
611.6927	0.096995
612.3781	0.092821
613.0637	0.089595
613.7493	0.088267
614.4351	0.091282
615.1209	0.088625
615.8068	0.096215
616.4929	0.081456
617.1790	0.079685
617.8652	0.078251
618.5515	0.074815
619.2379	0.065053
619.9244	0.065812
620.6110	0.070176
621.2977	0.052507
621.9845	0.058221
622.6714	0.059465
623.3584	0.061553
624.0454	0.061553
624.7326	0.065053
625.4199	0.060309
626.1072	0.054426
626.7947	0.049113
627.4822	0.049324
628.1698	0.044727
628.8576	0.040489
629.5454	0.045571
630.2333	0.044137
630.9213	0.040215
631.6094	0.037685
632.2976	0.036462
632.9859	0.032098
633.6743	0.033257
634.3628	0.030811
635.0514	0.028070
635.7400	0.029167
636.4288	0.032245
637.1177	0.031718
637.8066	0.028598
638.4957	0.030516
639.1848	0.029188
639.8740	0.026206
640.5633	0.026511
641.2528	0.023617
641.9423	0.023888
642.6319	0.020546
643.3216	0.022695
644.0113	0.020046
644.7012	0.020495
645.3912	0.019133
646.0812	0.020465
646.7714	0.018675
647.4616	0.016678
648.1520	0.020909
648.8424	0.022842
649.5329	0.024717
650.2236	0.022096
650.9143	0.020127
651.6051	0.019324
652.2960	0.022621
652.9870	0.022527
653.6780	0.023159
654.3692	0.025157
655.0605	0.041771
655.7518	0.707148
656.4433	0.963912
657.1348	0.624629
657.8264	0.370363
658.5181	0.275336
659.2099	0.198391
659.9018	0.048426
660.5938	0.020518
661.2859	0.016996
661.9781	0.017538
662.6704	0.017397
663.3627	0.015764
664.0552	0.016107
664.7477	0.016508
665.4403	0.018754
666.1330	0.018590
666.8259	0.014812
667.5188	0.018207
668.2117	0.015463
668.9048	0.017022
669.5980	0.014239
670.2913	0.017107
670.9846	0.016453
671.6781	0.020269
672.3716	0.024254
673.0652	0.024950
673.7589	0.022125
674.4527	0.020585
675.1466	0.019173
675.8406	0.018646
676.5347	0.017887
677.2288	0.017064
677.9231	0.022715
678.6174	0.022504
679.3119	0.022167
680.0064	0.026805
680.7010	0.025013
681.3957	0.024528
682.0905	0.024570
682.7854	0.021682
683.4803	0.023263
684.1754	0.024043
684.8705	0.028070
685.5658	0.031739
686.2611	0.032245
686.9565	0.033215
687.6520	0.032709
688.3476	0.030284
689.0433	0.026405
689.7390	0.026405
690.4349	0.025477
691.1308	0.028323
691.8269	0.027016
692.5230	0.028808
693.2192	0.029884
693.9155	0.025793
694.6119	0.022588
695.3083	0.027122
696.0049	0.021787
696.7016	0.025709
697.3983	0.029019
698.0951	0.030052
698.7920	0.027206
699.4890	0.024613
700.1861	0.024170
700.8833	0.021555
701.5806	0.020332
702.2779	0.020670
702.9753	0.023643
703.6729	0.020754
704.3705	0.022399
705.0682	0.017591
705.7660	0.018266
706.4638	0.021787
707.1618	0.029167
707.8599	0.027585
708.5580	0.027775
709.2562	0.023390
709.9545	0.022884
710.6529	0.028598
711.3514	0.023643
712.0500	0.023137
712.7486	0.022863
713.4474	0.025245
714.1462	0.026131
714.8451	0.024929
715.5441	0.024486
716.2432	0.021661
716.9424	0.020649
717.6416	0.021049
718.3410	0.021429
719.0404	0.021534
719.7399	0.022125
720.4395	0.021724
721.1392	0.024360
721.8390	0.022462
722.5388	0.021218
723.2388	0.021555
723.9388	0.022357
724.6389	0.020902
725.3391	0.023284
726.0394	0.024128
726.7398	0.023832
727.4403	0.025098
728.1408	0.024676
728.8414	0.025983
729.5421	0.027522
730.2429	0.027691
730.9438	0.032899
731.6448	0.034269
732.3458	0.029610
733.0470	0.031465
733.7482	0.035007
734.4495	0.039034
735.1509	0.034923
735.8524	0.035155
736.5539	0.033658
737.2556	0.036083
737.9573	0.032203
738.6591	0.027733
739.3610	0.032857
740.0630	0.034311
740.7651	0.028323
741.4672	0.026384
742.1695	0.025393
742.8718	0.025962
743.5742	0.023790
744.2767	0.022588
744.9792	0.019911
745.6819	0.023200
746.3846	0.020923
747.0874	0.020796
747.7903	0.023221
748.4933	0.022483
749.1964	0.024507
749.8995	0.025182
750.6028	0.033489
751.3061	0.026700
752.0095	0.031655
752.7130	0.026215
753.4166	0.028070
754.1202	0.031613
754.8239	0.031170
755.5278	0.030537
756.2317	0.033974
756.9356	0.038254
757.6397	0.044305
758.3438	0.040784
759.0481	0.039836
759.7524	0.045613
760.4568	0.044748
761.1613	0.047089
761.8658	0.037453
762.5705	0.034375
763.2752	0.039772
763.9800	0.037896
764.6849	0.043525
765.3898	0.044010
766.0949	0.035935
766.8000	0.031465
767.5052	0.028070
768.2105	0.031760
768.9159	0.035471
769.6214	0.033595
770.3269	0.034564
771.0325	0.039055
771.7382	0.034501
772.4440	0.030263
773.1499	0.031402
773.8558	0.027564
774.5618	0.023769
775.2679	0.021661
775.9741	0.020438
776.6804	0.020733
777.3868	0.017486
778.0932	0.018920
778.7997	0.021745
779.5063	0.024275
780.2130	0.020754
780.9197	0.023664
781.6265	0.027670
782.3335	0.025582
783.0405	0.025751
783.7475	0.025372
784.4547	0.020902
785.1619	0.022694
785.8692	0.021745
786.5766	0.023116
787.2841	0.020881
787.9917	0.020775
788.6993	0.023094
789.4070	0.025266
790.1148	0.020522
790.8227	0.019215
791.5306	0.017549
792.2387	0.016200
792.9468	0.017149
793.6550	0.017296
794.3632	0.024802
795.0716	0.023495
795.7800	0.022125
796.4885	0.016832
797.1971	0.015588
797.9058	0.016727
798.6145	0.016263
799.3233	0.016959
800.0322	0.015926
800.7412	0.014808
801.4503	0.013691
802.1594	0.012826
802.8686	0.012890
803.5779	0.013606
804.2873	0.011603
804.9968	0.011224
805.7063	0.012384
806.4159	0.018372
807.1256	0.018498
807.8354	0.018266
808.5452	0.018435
809.2551	0.017233
809.9651	0.014977
810.6752	0.013649
811.3853	0.015841
812.0956	0.013058
812.8059	0.010381
813.5163	0.011329
814.2267	0.015272
814.9373	0.012552
815.6479	0.011625
816.3586	0.009643
817.0694	0.011182
817.7802	0.010570
818.4912	0.011709
819.2022	0.009811
819.9133	0.008989
820.6244	0.009917
821.3357	0.011814
822.0470	0.010697
822.7584	0.010043
823.4698	0.009242
824.1814	0.008968
824.8930	0.008483
825.6047	0.011013
826.3165	0.010043
827.0283	0.010359
827.7402	0.010549
828.4522	0.008272
829.1643	0.010992
829.8765	0.009917
830.5887	0.008588
831.3010	0.007956
832.0134	0.006185
832.7259	0.007492
833.4384	0.008125
834.1510	0.008314
834.8637	0.007218
835.5765	0.008609
836.2893	0.006649
837.0022	0.006058
837.7152	0.005341
838.4283	0.005468
839.1414	0.003612
839.8546	0.005173
840.5679	0.006480
841.2813	0.005995
841.9947	0.005257
842.7082	0.004118
843.4218	0.004456
844.1355	0.003064
844.8492	0.005067
845.5631	0.003992
846.2770	0.004161
846.9909	0.004582
847.7050	0.004561
848.4191	0.005320
849.1333	0.003823
849.8475	0.004962
850.5619	0.003296
851.2763	0.003823
851.9908	0.004034
852.7053	0.007492
853.4200	0.009558
854.1347	0.010106
854.8495	0.011414
855.5643	0.009411
856.2792	0.009875
856.9942	0.008525
857.7093	0.007703
858.4245	0.007914
859.1397	0.007576
859.8550	0.007640
860.5704	0.006438
861.2858	0.005215
862.0013	0.007513
862.7169	0.004688
863.4326	0.005131
864.1483	0.006480
864.8642	0.005025
865.5800	0.004456
866.2960	0.004625
867.0120	0.005510
867.7281	0.007682
868.4443	0.005215
869.1606	0.003191
869.8769	0.003549
870.5933	0.002980
871.3097	0.002516
872.0263	0.004013
872.7429	0.005341
873.4596	0.004709
874.1763	0.004308
874.8932	0.004182
875.6101	0.005447
876.3270	0.005088
877.0441	0.004372
877.7612	0.003844
878.4784	0.005784
879.1957	0.004856
879.9130	0.005531
880.6304	0.007703
881.3479	0.006733
882.0654	0.006670
882.7831	0.004878
883.5007	0.004161
884.2185	0.005173
884.9363	0.004835
885.6542	0.005257
886.3722	0.005995
887.0903	0.005995
887.8084	0.004751
888.5266	0.004688
889.2448	0.004582
889.9632	0.002727
890.6816	0.003971
891.4001	0.005215
892.1186	0.004899
892.8372	0.003444
893.5559	0.004350
894.2747	0.003001
894.9935	0.003402
895.7124	0.003570
896.4314	0.002769
897.1504	0.003507
897.8695	0.004140
898.5887	0.002664
899.3079	0.005194
900.0272	0.003823
900.7466	0.004646
901.4661	0.003612
902.1856	0.003950
902.9052	0.002242
903.6249	0.003612
904.3446	0.004646
905.0644	0.003781
905.7843	0.005510
906.5043	0.004983
907.2243	0.003634
907.9444	0.003929
908.6645	0.002516
909.3847	0.002727
910.1050	0.003233
910.8254	0.003128
911.5458	0.002453
912.2663	0.003465
912.9869	0.003950
913.7075	0.003444
914.4283	0.003739
915.1490	0.002432
915.8699	0.002052
916.5908	0.003212
917.3118	0.003423
918.0328	0.003001
918.7539	0.003317
919.4751	0.002727
920.1964	0.002896
920.9177	0.003043
921.6391	0.002896
922.3606	0.002558
923.0821	0.000302
923.8037	0.002158
924.5254	0.002643
925.2471	0.003570
925.9689	0.001504
926.6908	0.002621
927.4127	0.002621
928.1347	0.001757
928.8568	0.002052
929.5789	0.002031
930.3011	0.000534
931.0234	0.000323
931.7457	0.002537
932.4681	0.001736
933.1906	0.001694
933.9131	0.001546
934.6358	0.003212
935.3584	0.001694
936.0812	0.002453
936.8040	0.001778
937.5269	0.000956
938.2498	0.001103
938.9728	0.002579
939.6959	0.001736
940.4190	0.001841
941.1422	0.000555
941.8655	0.001757
942.5889	0.001378
943.3123	0.001356
944.0357	0.000893
944.7593	0.000682
945.4829	-0.000162
946.2066	0.003170
946.9303	0.001989
947.6541	0.001588
948.3780	0.000197
949.1019	0.000808
949.8259	0.000703
950.5500	0.001862
951.2741	0.001293
951.9983	0.001504
952.7226	0.001103
953.4469	0.001209
954.1713	0.001335
954.8958	0.001968
955.6203	0.000745
956.3449	0.002263
957.0696	-0.000499
957.7943	0.001378
958.5191	0.001799
959.2439	0.000429
959.9688	0.001420
960.6938	0.001335
961.4189	0.001082
962.1440	0.000724
962.8692	0.000112
963.5944	0.000640
964.3197	-0.000731
965.0451	0.001167
965.7705	0.000935
966.4960	0.002221
967.2216	0.001378
967.9472	0.001335
968.6729	0.001272
969.3987	0.000703
970.1245	0.000344
970.8504	0.000197
971.5763	0.000703
972.3023	0.000998
973.0284	0.000661
973.7545	-0.000309
974.4807	0.000893
975.2070	0.001230
975.9333	0.000176
976.6597	0.001525
977.3862	0.001694
978.1127	-0.001385
978.8393	-0.000710
979.5659	0.000745
980.2926	-0.000035
981.0194	0.000450
981.7462	0.001378
982.4731	0.000661
983.2001	0.001504
983.9271	0.001968
984.6542	0.000070
985.3814	0.001125
986.1086	0.000745
986.8358	0.000829
987.5632	0.000534
988.2906	0.001356
989.0180	0.000682
989.7456	0.000070
990.4732	0.000597
991.2008	0.001335
991.9285	0.001103
992.6563	0.000682
993.3841	0.000365
994.1120	0.001926
994.8400	0.001019
995.5680	0.001546
996.2961	0.001631
997.0242	0.000260
997.7524	0.000091
998.4807	0.000408
999.2090	-0.000077
999.9374	-0.000288
1000.67	-0.000098
1001.39	-0.000394
1002.12	0.000408
1002.85	0.000998
1003.58	0.000724
1004.31	0.000829
1005.04	-0.000921
1005.77	0.001314
1006.5	0.000914
1007.22	0.000682
1007.95	0.000935
1008.68	0.000408
1009.41	0.001188
1010.14	-0.000921
1010.87	0.001335
1011.6	-0.001469
1012.33	-0.001279
1013.06	0.000049
1013.79	-0.000077
1014.52	0.000871
1015.25	0.000450
1015.98	0.000998
1016.71	0.001293
1017.44	-0.001068
1018.17	0.000429
1018.9	0.000682
1019.63	0.000155
1020.36	0.000387
1021.09	0.000323
1021.82	-0.000162
1022.55	0.000429
1023.03	0.000618