File: Auto_Polymerization/Data/UV_VIS_Spectra/MRG-061-G- spectra_G1_G2_after_aminolysis/MRG-061-G-1_after_aminolysis_spectrum_2025-06-20_14-42-59_absorbance.txt
# Wavelength	Absorbance
197.78 -0.189664
198.392 0.006367
199.004 0.032064
199.617 0.569981
200.229 -0.571937
200.842 0.334977
201.455 -0.003382
202.067 0.561765
202.68 -0.114639
203.294 -0.451101
203.907 -1.344802
204.52 3.062958
205.134 2.052379
205.748 0.429292
206.361 -2.898176
206.975 -0.811044
207.589 -3.052309
208.204 -0.049655
208.818 -0.540285
209.433 0.272465
210.047 -0.132807
210.662 0.441537
211.277 -0.276175
211.892 -0.355684
212.507 0.267775
213.122 2.866287
213.738 0.003608
214.353 -3.146748
214.969 -0.474726
215.585 2.846955
216.201 -0.423502
216.817 -0.001906
217.433 -0.490791
218.049 0.000000
218.666 3.186674
219.282 0.285168
219.899 0.295438
220.516 -2.421604
221.133 0.040468
221.75 0.017717
222.368 0.398736
222.985 -2.778874
223.603 0.177612
224.22 0.551692
224.838 2.890421
225.456 -0.512625
226.074 0.146736
226.692 -2.541579
227.311 -0.196417
227.929 3.252853
228.548 0.272536
229.167 0.000000
229.786 -0.559526
230.405 1.963788
231.024 -0.422602
231.643 -0.243868
232.262 0.825278
232.882 -0.435947
233.501 0.649150
234.121 -3.146748
234.741 0.223703
235.361 0.002628
235.982 0.693061
236.602 0.000000
237.222 -0.077760
237.843 1.851258
238.464 -0.207578
239.084 -3.165838
239.706 -0.150338
240.327 0.685182
240.948 -0.045491
241.569 -0.520748
242.191 3.206826
242.812 -0.175717
243.434 1.871891
244.056 0.000000
244.678 0.515400
245.3 -0.503600
245.923 0.350346
246.545 -0.170827
247.167 0.224147
247.79 -0.132626
248.413 -0.305374
249.036 3.030600
249.659 0.014454
250.282 3.189490
250.906 -0.828344
251.529 2.008600
252.153 0.428055
252.776 2.397940
253.4 0.513399
254.024 -0.047906
254.648 2.769377
255.273 3.097604
255.897 -0.037991
256.521 2.827369
257.146 -0.107873
257.771 0.000000
258.396 0.151327
259.021 0.127948
259.646 0.071602
260.271 2.621176
260.897 1.275129
261.522 1.418426
262.148 2.989895
262.774 0.523596
263.399 0.073287
264.026 2.396199
264.652 0.275436
265.278 -0.143200
265.904 -0.388003
266.531 0.789316
267.158 2.884795
267.784 2.550228
268.411 0.407761
269.038 2.123852
269.666 2.965672
270.293 -2.514548
270.921 1.792392
271.548 0.390935
272.176 0.032097
272.804 3.021603
273.432 -0.018879
274.06 -0.106348
274.688 0.569713
275.316 -0.078161
275.945 0.271067
276.573 1.798713
277.202 0.225107
277.831 -0.014944
278.46 2.935507
279.089 2.691965
279.718 0.509342
280.348 2.632457
280.977 0.177551
281.607 0.000000
282.237 -0.092346
282.866 2.791691
283.497 -0.021709
284.127 -1.538717
284.757 -0.224949
285.387 -1.869232
286.018 0.638148
286.648 -0.193022
287.279 -0.221231
287.91 -0.240358
288.541 0.574079
289.172 0.000000
289.803 0.000000
290.435 -3.146748
291.067 0.490030
291.698 0.227059
292.33 -0.062541
292.962 -3.265996
293.594 0.427731
294.226 0.000000
294.858 0.030669
295.491 -2.591065
296.123 0.327083
296.756 3.220892
297.389 2.935003
298.022 3.149219
298.654 0.109351
299.288 -2.962369
299.921 -0.140597
300.554 2.769377
301.188 0.028575
301.822 0.346038
302.455 0.462121
303.089 2.357935
303.723 0.062745
304.357 -0.619340
304.992 -0.313680
305.626 -0.845727
306.261 -0.047145
306.895 2.575188
307.53 0.233786
308.165 0.000000
308.8 -0.001603
309.435 2.450249
310.07 -0.078589
310.706 3.168203
311.341 0.100270
311.977 0.244526
312.613 -0.200415
313.249 0.147911
313.885 3.086360
314.521 0.469345
315.157 3.362859
315.793 0.308820
316.43 0.506474
317.067 3.463445
317.703 0.383952
318.34 -0.080509
318.977 0.418892
319.614 3.245019
320.252 0.454607
320.889 -0.610529
321.526 0.456480
322.164 3.132580
322.802 0.355565
323.44 0.895854
324.078 3.558108
324.716 0.884607
325.354 0.443572
325.992 3.314710
326.631 0.296162
327.269 0.203721
327.908 3.508395
328.547 0.412414
329.186 0.512002
329.825 0.062564
330.464 3.658298
331.104 3.526469
331.743 1.331026
332.383 3.520876
333.022 0.674961
333.662 0.557072
334.302 0.516247
334.942 1.757724
335.582 0.965100
336.223 3.666237
336.863 0.592551
337.504 0.699895
338.144 3.781037
338.785 1.136179
339.426 0.528021
340.067 3.741388
340.708 1.361728
341.349 0.721391
341.991 3.831166
342.632 0.839234
343.274 3.825036
343.916 1.098416
344.558 3.886829
345.2 1.581631
345.842 1.107093
346.484 1.834158
347.126 1.083844
347.769 1.541929
348.411 2.375721
349.054 0.973777
349.697 3.921634
350.34 1.452147
350.983 0.955451
351.626 1.093383
352.27 1.085569
352.913 2.855464
353.557 1.480165
354.2 1.678045
354.844 1.230845
355.488 3.989138
356.132 4.015527
356.776 1.459780
357.421 1.224774
358.065 3.991935
358.709 4.012879
359.354 3.988202
359.999 0.602204
360.644 1.440918
361.289 1.041708
361.934 0.723991
362.579 0.942930
363.224 1.068837
363.87 1.000815
364.515 0.922321
365.161 1.029625
365.807 1.068095
366.453 1.387780
367.099 1.383017
367.745 2.050220
368.392 4.101850
369.038 1.897320
369.685 4.136974
370.331 1.583299
370.978 2.383714
371.625 1.100389
372.272 4.101128
372.919 0.896004
373.566 4.154637
374.214 0.774011
374.861 1.269141
375.509 1.176411
376.156 1.402287
376.804 1.207370
377.452 1.490942
378.1 1.366775
378.748 1.329153
379.397 4.318189
380.045 1.333452
380.694 1.119735
381.342 1.433469
381.991 1.394762
382.64 1.467652
383.289 1.056356
383.938 1.625981
384.587 1.119110
385.237 1.393963
385.886 1.277242
386.536 1.830393
387.186 1.526434
387.836 4.396356
388.485 1.430557
389.135 4.421044
389.786 1.562562
390.436 1.392127
391.086 4.433866
391.737 1.317949
392.387 1.534118
393.038 2.143933
393.689 4.473648
394.34 4.463997
394.991 1.675221
395.642 4.474726
396.294 1.184630
396.945 1.431244
397.597 2.536598
398.248 2.293467
398.9 1.482100
399.552 1.717999
400.204 1.329762
400.856 1.519054
401.509 1.235193
402.161 1.598553
402.813 2.130227
403.466 1.560140
404.119 1.235168
404.772 4.547750
405.425 1.753594
406.078 1.889656
406.731 1.552232
407.384 1.394407
408.038 1.172673
408.691 1.833348
409.345 1.400499
409.998 4.549445
410.652 1.306914
411.306 2.116454
411.961 1.561582
412.615 1.478541
413.269 1.789362
413.923 1.427202
414.578 1.327535
415.233 1.591412
415.887 1.108270
416.542 1.319430
417.197 1.270030
417.852 1.162577
418.508 1.189932
419.163 1.081201
419.818 0.985981
420.474 1.329167
421.13 1.005987
421.786 1.036802
422.442 1.081448
423.098 1.176800
423.754 0.981346
424.41 0.998971
425.066 0.809375
425.723 0.956389
426.379 0.919412
427.036 0.892321
427.693 0.777201
428.35 0.852134
429.007 0.817223
429.664 0.934760
430.321 0.725135
430.979 0.659553
431.636 0.624813
432.294 0.682358
432.952 0.665116
433.609 0.665733
434.267 0.613613
434.925 0.608601
435.584 0.552106
436.242 0.628236
436.9 0.537802
437.559 0.496718
438.217 0.483470
438.876 0.513782
439.535 0.517458
440.194 0.485353
440.853 0.481033
441.512 0.503290
442.171 0.479623
442.831 0.395633
443.49 0.411493
444.15 0.453681
444.81 0.407498
445.469 0.429147
446.129 0.402543
446.789 0.405990
447.45 0.391161
448.11 0.320412
448.77 0.390696
449.431 0.385618
450.091 0.330113
450.752 0.339548
451.413 0.333079
452.074 0.302547
452.735 0.317639
453.396 0.299517
454.057 0.295650
454.719 0.336243
455.38 0.282248
456.042 0.313157
456.704 0.301968
457.365 0.297857
458.027 0.281876
458.689 0.277360
459.352 0.284529
460.014 0.290443
460.676 0.245728
461.339 0.275748
462.001 0.276761
462.664 0.298160
463.327 0.279934
463.99 0.256174
464.653 0.261161
465.316 0.258116
465.979 0.302425
466.642 0.271628
467.306 0.291608
467.97 0.318156
468.633 0.277016
469.297 0.230169
469.961 0.233272
470.625 0.265633
471.289 0.282875
471.953 0.236089
472.618 0.277164
473.282 0.260900
473.947 0.258715
474.611 0.233657
475.276 0.280477
475.941 0.246426
476.606 0.249554
477.271 0.224404
477.936 0.302633
478.602 0.238644
479.267 0.264011
479.933 0.271114
480.598 0.261425
481.264 0.250138
481.93 0.241424
482.596 0.247779
483.262 0.279110
483.928 0.272780
484.594 0.260614
485.261 0.227383
485.927 0.372108
486.594 0.150748
487.26 0.237020
487.927 0.210110
488.594 0.261090
489.261 0.219207
489.928 0.252507
490.596 0.252914
491.263 0.263272
491.93 0.255638
492.598 0.268847
493.266 0.232564
493.933 0.231030
494.601 0.258844
495.269 0.263420
495.937 0.263234
496.606 0.240585
497.274 0.236901
497.942 0.237670
498.611 0.259727
499.279 0.230903
499.948 0.231164
500.617 0.230422
501.286 0.265013
501.955 0.219027
502.624 0.258002
503.293 0.244335
503.963 0.195062
504.632 0.229724
505.302 0.258364
505.972 0.232609
506.641 0.251759
507.311 0.206155
507.981 0.222044
508.651 0.210123
509.322 0.202926
509.992 0.243840
510.662 0.222094
511.333 0.268812
512.004 0.248252
512.674 0.219159
513.345 0.250261
514.016 0.251269
514.687 0.224057
515.358 0.248781
516.029 0.251974
516.701 0.283982
517.372 0.232203
518.044 0.289210
518.716 0.232256
519.387 0.275997
520.059 0.217658
520.731 0.217803
521.403 0.230606
522.076 0.212635
522.748 0.248787
523.42 0.230766
524.093 0.276682
524.765 0.228230
525.438 0.181075
526.111 0.239676
526.784 0.264831
527.457 0.260114
528.13 0.256451
528.803 0.274568
529.476 0.232998
530.15 0.243827
530.823 0.267539
531.497 0.246253
532.171 0.245733
532.845 0.267433
533.519 0.245741
534.193 0.224870
534.867 0.236679
535.541 0.211676
536.216 0.251901
536.89 0.205559
537.564 0.294310
538.239 0.244309
538.914 0.222813
539.589 0.229808
540.264 0.206673
540.939 0.194220
541.614 0.228219
542.289 0.243518
542.965 0.228422
543.64 0.235390
544.316 0.262280
544.991 0.229786
545.667 0.223330
546.343 0.217464
547.019 0.230191
547.695 0.241024
548.371 0.213448
549.048 0.221421
549.724 0.219716
550.401 0.194862
551.077 0.200212
551.754 0.234561
552.431 0.227960
553.108 0.201485
553.785 0.251832
554.462 0.221177
555.139 0.243835
555.816 0.189973
556.494 0.245996
557.171 0.198701
557.849 0.240207
558.527 0.197814
559.204 0.204591
559.882 0.216926
560.56 0.255830
561.238 0.197012
561.917 0.213934
562.595 0.228196
563.273 0.243051
563.952 0.228598
564.63 0.219685
565.309 0.207483
565.988 0.210905
566.667 0.209749
567.346 0.285292
568.025 0.211527
568.704 0.258113
569.384 0.237293
570.063 0.243568
570.742 0.212720
571.422 0.232673
572.102 0.239316
572.782 0.186814
573.462 0.236285
574.141 0.231398
574.822 0.216975
575.502 0.201028
576.182 0.224937
576.863 0.241956
577.543 0.235531
578.224 0.194615
578.904 0.182554
579.585 0.230945
580.266 0.207143
580.947 0.225858
581.628 0.259814
582.309 0.201504
582.991 0.180529
583.672 0.191361
584.354 0.237212
585.035 0.257090
585.717 0.211082
586.399 0.183861
587.08 0.230935
587.762 0.205244
588.444 0.209644
589.127 0.174914
589.809 0.205988
590.491 0.200418
591.174 0.195741
591.856 0.222377
592.539 0.278119
593.222 0.218774
593.905 0.191427
594.587 0.206230
595.27 0.213005
595.954 0.185046
596.637 0.210668
597.32 0.220976
598.004 0.187402
598.687 0.252791
599.371 0.193467
600.055 0.219758
600.738 0.200026
601.422 0.191497
602.106 0.214037
602.79 0.225060
603.475 0.205153
604.159 0.192376
604.843 0.194626
605.528 0.225147
606.212 0.191597
606.897 0.202183
607.582 0.206063
608.267 0.193257
608.952 0.205590
609.637 0.191675
610.322 0.211925
611.007 0.189251
611.693 0.218084
612.378 0.195675
613.064 0.195880
613.749 0.192780
614.435 0.193845
615.121 0.184547
615.807 0.201782
616.493 0.183766
617.179 0.208964
617.865 0.217705
618.552 0.174348
619.238 0.189929
619.924 0.221835
620.611 0.177213
621.298 0.173906
621.985 0.220081
622.671 0.219266
623.358 0.210502
624.045 0.215561
624.733 0.182002
625.42 0.166995
626.107 0.169839
626.795 0.184731
627.482 0.231270
628.17 0.184177
628.858 0.196942
629.545 0.181381
630.233 0.203451
630.921 0.195095
631.609 0.192000
632.298 0.199354
632.986 0.171415
633.674 0.208493
634.363 0.210304
635.051 0.240686
635.74 0.191786
636.429 0.188232
637.118 0.177498
637.807 0.190920
638.496 0.210653
639.185 0.170544
639.874 0.169425
640.563 0.140052
641.253 0.194504
641.942 0.174934
642.632 0.161550
643.322 0.136071
644.011 0.205213
644.701 0.134164
645.391 0.244061
646.081 0.134467
646.771 0.180329
647.462 0.182966
648.152 0.221307
648.842 0.200293
649.533 0.248858
650.224 0.186023
650.914 0.201085
651.605 0.181100
652.296 0.203873
652.987 0.184544
653.678 0.182117
654.369 0.205729
655.061 0.394574
655.752 0.514797
656.443 0.046966
657.135 0.106170
657.826 0.153902
658.518 0.167643
659.21 0.161812
659.902 0.066414
660.594 0.142298
661.286 0.175643
661.978 0.148824
662.67 0.186992
663.363 0.173833
664.055 0.171190
664.748 0.222171
665.44 0.220719
666.133 0.224368
666.826 0.183651
667.519 0.212588
668.212 0.146720
668.905 0.209199
669.598 0.135871
670.291 0.189180
670.985 0.197908
671.678 0.238415
672.372 0.190988
673.065 0.197324
673.759 0.185938
674.453 0.161134
675.147 0.214844
675.841 0.205059
676.535 0.159113
677.229 0.155597
677.923 0.248057
678.617 0.213688
679.312 0.241094
680.006 0.172323
680.701 0.188496
681.396 0.235660
682.091 0.160610
682.785 0.139854
683.48 0.167465
684.175 0.207383
684.87 0.225385
685.566 0.223613
686.261 0.226242
686.957 0.169515
687.652 0.179716
688.348 0.202470
689.043 0.224879
689.739 0.195405
690.435 0.205669
691.131 0.222496
691.827 0.152042
692.523 0.212063
693.219 0.193448
693.915 0.166351
694.612 0.194111
695.308 0.199529
696.005 0.189667
696.702 0.263481
697.398 0.174274
698.095 0.208359
698.792 0.153002
699.489 0.164595
700.186 0.203327
700.883 0.185660
701.581 0.220614
702.278 0.185204
702.975 0.158771
703.673 0.251914
704.37 0.185480
705.068 0.179523
705.766 0.136829
706.464 0.259209
707.162 0.143031
707.86 0.205675
708.558 0.192454
709.256 0.159507
709.955 0.184280
710.653 0.187554
711.351 0.130344
712.05 0.143224
712.749 0.157646
713.447 0.199607
714.146 0.181733
714.845 0.166201
715.544 0.190737
716.243 0.119008
716.942 0.205303
717.642 0.187777
718.341 0.169482
719.04 0.205757
719.74 0.173602
720.439 0.167986
721.139 0.171363
721.839 0.163057
722.539 0.195449
723.239 0.204379
723.939 0.184730
724.639 0.215864
725.339 0.177496
726.039 0.168724
726.74 0.198480
727.44 0.194774
728.141 0.212753
728.841 0.167200
729.542 0.183378
730.243 0.152546
730.944 0.237484
731.645 0.183123
732.346 0.166123
733.047 0.202199
733.748 0.214307
734.449 0.215054
735.151 0.153907
735.852 0.205989
736.554 0.196633
737.256 0.187830
737.957 0.150579
738.659 0.185300
739.361 0.220616
740.063 0.117609
740.765 0.187300
741.467 0.173335
742.169 0.191233
742.872 0.178379
743.574 0.221432
744.277 0.138948
744.979 0.197156
745.682 0.166035
746.385 0.168415
747.087 0.196530
747.79 0.152770
748.493 0.181556
749.196 0.224120
749.899 0.198444
750.603 0.210900
751.306 0.204725
752.01 0.194468
752.713 0.172888
753.417 0.191785
754.12 0.213058
754.824 0.170612
755.528 0.215862
756.232 0.222784
756.936 0.195610
757.64 0.197508
758.344 0.161307
759.048 0.169259
759.752 0.196719
760.457 0.198942
761.161 0.171155
761.866 0.205053
762.571 0.169257
763.275 0.209771
763.98 0.214591
764.685 0.194345
765.39 0.183922
766.095 0.161221
766.8 0.138276
767.505 0.183324
768.211 0.231628
768.916 0.224242
769.621 0.187537
770.327 0.171614
771.033 0.193041
771.738 0.179737
772.444 0.179811
773.15 0.153739
773.856 0.196551
774.562 0.177588
775.268 0.162166
775.974 0.189222
776.68 0.199335
777.387 0.119685
778.093 0.210910
778.8 0.177182
779.506 0.221043
780.213 0.178242
780.92 0.209077
781.626 0.171394
782.333 0.194097
783.04 0.134135
783.747 0.193649
784.455 0.173574
785.162 0.198830
785.869 0.150672
786.577 0.194240
787.284 0.159671
787.992 0.184933
788.699 0.205355
789.407 0.196493
790.115 0.142248
790.823 0.183143
791.531 0.132940
792.239 0.156037
792.947 0.117994
793.655 0.255847
794.363 0.188194
795.072 0.188520
795.78 0.125735
796.489 0.147056
797.197 0.179685
797.906 0.207345
798.615 0.167747
799.323 0.155748
800.032 0.205062
800.741 0.179218
801.45 0.220505
802.159 0.173127
802.869 0.149096
803.578 0.240038
804.287 0.118665
804.997 0.174717
805.706 0.151712
806.416 0.205282
807.126 0.168503
807.835 0.134430
808.545 0.195877
809.255 0.196261
809.965 0.185682
810.675 0.147931
811.385 0.170878
812.096 0.178983
812.806 0.155583
813.516 0.204189
814.227 0.187671
814.937 0.150880
815.648 0.117915
816.359 0.149208
817.069 0.244361
817.78 0.050853
818.491 0.139778
819.202 0.166866
819.913 0.085275
820.624 0.248818
821.336 0.256735
822.047 0.265698
822.758 0.203808
823.47 0.167695
824.181 0.272843
824.893 0.149377
825.605 0.185444
826.317 0.184277
827.028 0.165036
827.74 0.176374
828.452 0.210373
829.164 0.137515
829.876 0.133649
830.589 0.108229
831.301 0.160187
832.013 0.165116
832.726 0.277549
833.438 0.087186
834.151 0.268993
834.864 0.206737
835.577 0.187249
836.289 0.161457
837.002 0.253049
837.715 0.000699
838.428 0.116856
839.141 0.298002
839.855 0.140038
840.568 0.199450
841.281 0.112907
841.995 0.071641
842.708 0.292381
843.422 0.280791
844.135 0.148533
844.849 0.314292
845.563 0.209297
846.277 0.089932
846.991 0.107825
847.705 0.013762
848.419 0.095045
849.133 0.127931
849.847 0.174837
850.562 -0.022480
851.276 0.016915
851.991 0.194999
852.705 0.149352
853.42 0.153182
854.135 0.146570
854.85 0.226668
855.564 0.122547
856.279 0.181583
856.994 0.123477
857.709 0.091549
858.424 0.101680
859.14 0.095698
859.855 0.203353
860.57 0.129344
861.286 0.047629
862.001 0.078118
862.717 0.179380
863.433 0.102845
864.148 0.144671
864.864 0.053166
865.58 0.073530
866.296 0.197067
867.012 0.270716
867.728 0.137931
868.444 0.135910
869.161 0.138612
869.877 0.097490
870.593 0.131543
871.31 0.234358
872.026 0.217050
872.743 0.208382
873.46 0.226128
874.176 0.225138
874.893 0.055907
875.61 0.116067
876.327 0.116527
877.044 0.023129
877.761 0.145464
878.478 0.161286
879.196 0.175329
879.913 0.182309
880.63 0.184971
881.348 0.128543
882.065 0.284334
882.783 0.173247
883.501 0.197876
884.218 0.274395
884.936 0.223209
885.654 0.115304
886.372 0.072054
887.09 0.360459
887.808 0.305657
888.527 0.018218
889.245 0.507282
889.963 0.324786
890.682 0.075451
891.4 0.255885
892.119 0.197008
892.837 0.091454
893.556 0.173306
894.275 0.074339
894.994 0.158359
895.712 0.387007
896.431 0.128942
897.15 0.242358
897.87 0.195459
898.589 0.209831
899.308 0.191663
900.027 0.097788
900.747 0.244534
901.466 0.045640
902.186 0.170369
902.905 0.125588
903.625 0.280200
904.345 0.052756
905.064 0.331086
905.784 0.218866
906.504 0.293581
907.224 0.307689
907.944 0.373894
908.664 0.059489
909.385 0.174250
910.105 0.058431
910.825 0.247201
911.546 0.083039
912.266 0.236265
912.987 0.032797
913.707 0.240277
914.428 -0.089354
915.149 0.225885
915.87 0.123976
916.591 0.148686
917.312 0.117412
918.033 0.168874
918.754 0.180581
919.475 0.183136
920.196 0.085555
920.918 0.209760
921.639 0.230623
922.361 0.318540
923.082 0.084934
923.804 0.511700
924.525 0.144189
925.247 0.326908
925.969 0.026096
926.691 0.258814
927.413 0.147793
928.135 0.670308
928.857 0.131248
929.579 0.649680
930.301 0.332429
931.023 0.626660
931.746 0.111670
932.468 0.498605
933.191 -0.124632
933.913 0.168081
934.636 -0.012291
935.358 0.110803
936.081 0.268685
936.804 0.512705
937.527 -0.070223
938.25 0.187116
938.973 0.909700
939.696 1.229102
940.419 0.041937
941.142 -0.542096
941.865 0.256728
942.589 -0.008172
943.312 3.404492
944.036 0.168855
944.759 0.756157
945.483 0.027257
946.207 0.262184
946.93 -1.032019
947.654 0.473598
948.378 -0.392140
949.102 0.629828
949.826 -0.296400
950.55 3.250176
951.274 0.629934
951.998 -0.156209
952.723 -0.327953
953.447 0.140804
954.171 -0.959930
954.896 0.249409
955.62 -0.305417
956.345 0.072373
957.07 -0.183593
957.794 3.097604
958.519 0.027509
959.244 1.168094
959.969 -0.033753
960.694 2.919078
961.419 -0.347222
962.144 0.081956
962.869 2.719331
963.594 -0.088471
964.32 0.145384
965.045 -0.006347
965.77 0.682654
966.496 0.685977
967.222 -0.521476
967.947 2.859739
968.673 -0.116681
969.399 0.832068
970.125 -0.780072
970.85 0.985841
971.576 -0.527990
972.302 0.199169
973.028 0.073287
973.755 0.091229
974.481 -0.173651
975.207 0.283915
975.933 -0.237265
976.66 3.082785
977.386 2.745075
978.113 2.776701
978.839 0.080045
979.566 2.663701
980.293 -0.295244
981.019 -0.387377
981.746 1.845098
982.473 0.156738
983.2 -0.122601
983.927 0.348842
984.654 -0.379771
985.381 3.229170
986.109 -2.763428
986.836 2.101310
987.563 2.700704
988.291 -0.191886
989.018 -0.037927
989.746 -0.259964
990.473 0.279409
991.201 -0.307234
991.928 -2.252853
992.656 0.179849
993.384 -0.131602
994.112 -0.340568
994.84 0.000000
995.568 -0.024761
996.296 0.132764
997.024 2.049218
997.752 0.347034
998.481 0.506606
999.209 -3.308351
999.937 -0.504105
1000.67 -0.110752
1001.39 0.014293
1002.12 -0.272834
1002.85 -0.404153
1003.58 -3.018700
1004.31 -0.414208
1005.04 3.129368
1005.77 0.269356
1006.5 2.812913
1007.22 -0.480326
1007.95 0.193820
1008.68 -0.420975
1009.41 -2.873902
1010.14 -0.402721
1010.87 0.212936
1011.6 -1.139718
1012.33 0.212806
1013.06 0.000000
1013.79 0.452128
1014.52 3.161967
1015.25 -0.237597
1015.98 -0.835083
1016.71 2.190332
1017.44 0.140689
1018.17 0.195895
1018.9 -0.144235
1019.63 0.008843
1020.36 2.575188
1021.09 0.903314
1021.82 -2.763428
1022.55 -0.231536
1023.03 2.812913