File: MRG-061-G-2_after_aminolysis_spectrum_2025-06-20_14-49-16.txt
# Wavelength (nm)	Intensity (a.u.)
197.7802	0.000315
198.3922	0.000272
199.0044	0.000420
199.6168	-0.000044
200.2292	0.001221
200.8418	0.000779
201.4546	0.000336
202.0674	-0.000866
202.6805	0.000019
203.2936	-0.001204
203.9069	-0.000044
204.5203	-0.000234
205.1338	0.000272
205.7475	-0.000128
206.3614	0.000357
206.9753	0.000167
207.5894	-0.000656
208.2036	0.000146
208.8180	-0.000023
209.4325	0.002170
210.0471	0.000631
210.6618	0.000842
211.2767	0.001369
211.8918	-0.000318
212.5069	-0.000424
213.1222	-0.000550
213.7376	0.000863
214.3532	-0.000297
214.9689	0.000800
215.5847	0.000736
216.2007	-0.000002
216.8168	0.000062
217.4330	0.001664
218.0494	-0.000149
218.6659	0.001517
219.2825	-0.000972
219.8992	0.000694
220.5161	-0.000402
221.1332	0.000610
221.7503	0.000462
222.3676	0.001728
222.9850	0.001074
223.6026	0.000357
224.2203	0.000631
224.8381	0.000209
225.4561	0.000884
226.0742	0.001643
226.6924	-0.000128
227.3107	0.000694
227.9292	-0.000972
228.5478	0.000631
229.1666	0.000821
229.7855	-0.000951
230.4045	-0.000023
231.0236	0.000315
231.6429	0.000040
232.2623	-0.000424
232.8818	0.000441
233.5015	-0.000339
234.1213	0.000040
234.7413	-0.000508
235.3613	0.000462
235.9815	0.000357
236.6018	-0.000466
237.2223	0.001390
237.8429	-0.000065
238.4636	-0.000402
239.0845	0.000483
239.7055	0.000694
240.3266	0.001432
240.9478	-0.000466
241.5692	0.000272
242.1907	0.001074
242.8124	0.000652
243.4341	0.000968
244.0560	0.000315
244.6781	0.000926
245.3002	-0.000318
245.9225	-0.001056
246.5449	0.001285
247.1675	0.000652
247.7902	0.000757
248.4130	0.000336
249.0359	0.000610
249.6590	0.001453
250.2822	0.000272
250.9056	0.000272
251.5290	-0.000002
252.1526	0.000821
252.7763	0.001116
253.4002	-0.000698
254.0242	0.000399
254.6483	-0.000086
255.2725	0.000062
255.8969	0.000547
256.5214	0.000842
257.1460	0.000420
257.7708	0.000905
258.3957	0.000420
259.0207	0.001032
259.6459	0.001264
260.2711	0.001285
260.8965	0.000504
261.5221	0.000694
262.1477	0.000083
262.7735	0.001538
263.3995	0.000104
264.0255	0.000842
264.6517	0.001812
265.2780	0.000188
265.9044	-0.000276
266.5310	-0.000402
267.1577	0.001348
267.7845	0.000694
268.4114	0.000483
269.0385	0.000694
269.6657	0.000968
270.2931	-0.001162
270.9205	0.000547
271.5481	0.001242
272.1758	0.000905
272.8037	0.001032
273.4316	0.000251
274.0597	0.000272
274.6880	-0.000634
275.3163	-0.001499
275.9448	-0.000824
276.5734	0.001137
277.2022	0.000146
277.8310	0.000336
278.4600	0.000842
279.0891	0.000673
279.7184	0.000779
280.3477	-0.001246
280.9772	0.001664
281.6069	0.000315
282.2366	0.000673
282.8665	0.001074
283.4965	-0.000065
284.1266	0.000800
284.7569	0.000715
285.3873	0.000251
286.0178	0.000694
286.6484	0.000842
287.2792	0.000736
287.9101	0.000125
288.5411	0.000779
289.1723	0.001791
289.8035	-0.001394
290.4349	0.000209
291.0665	0.000631
291.6981	0.000167
292.3299	0.001095
292.9618	-0.000487
293.5938	-0.000128
294.2260	0.000884
294.8582	0.001242
295.4906	-0.000487
296.1232	0.000062
296.7558	0.001285
297.3886	0.000779
298.0215	0.000673
298.6545	0.001053
299.2877	0.000188
299.9210	0.000504
300.5544	0.000736
301.1879	-0.001014
301.8215	0.000083
302.4553	0.001327
303.0892	0.001158
303.7233	0.000821
304.3574	-0.000824
304.9917	0.000821
305.6261	-0.000297
306.2606	-0.001373
306.8953	0.000420
307.5301	0.001559
308.1650	0.000104
308.8000	0.000547
309.4351	0.000293
310.0704	0.000209
310.7058	-0.000445
311.3413	0.000378
311.9770	0.000483
312.6127	-0.000381
313.2486	0.000652
313.8846	0.000842
314.5208	-0.000508
315.1570	0.000315
315.7934	0.002381
316.4299	0.000146
317.0666	-0.000023
317.7033	0.001200
318.3402	0.000568
318.9772	0.001221
319.6143	0.000104
320.2516	0.001390
320.8890	0.001158
321.5265	-0.000192
322.1641	-0.000677
322.8018	-0.000803
323.4397	0.000736
324.0777	0.000968
324.7158	-0.000318
325.3540	0.000842
325.9924	0.000040
326.6308	0.001179
327.2694	0.000483
327.9082	-0.000213
328.5470	0.000062
329.1860	0.000188
329.8251	0.000104
330.4643	0.001011
331.1036	-0.000698
331.7431	0.000989
332.3826	0.000547
333.0223	0.000631
333.6622	0.000968
334.3021	0.000589
334.9422	-0.000086
335.5823	0.002993
336.2227	0.000146
336.8631	0.000779
337.5036	0.000146
338.1443	0.000504
338.7851	0.000188
339.4260	0.000062
340.0670	0.000357
340.7082	0.001770
341.3495	-0.000213
341.9909	0.002044
342.6324	-0.000297
343.2740	0.001032
343.9158	-0.000107
344.5577	0.002170
345.1997	-0.000402
345.8418	0.001053
346.4840	0.000441
347.1264	0.001074
347.7689	-0.000466
348.4115	0.000483
349.0542	-0.000613
349.6971	-0.000445
350.3400	-0.001499
350.9831	0.001770
351.6263	-0.000487
352.2696	0.000926
352.9131	0.001011
353.5566	0.001896
354.2003	-0.000445
354.8441	0.001116
355.4881	0.000462
356.1321	-0.000128
356.7763	-0.001394
357.4206	-0.000297
358.0650	-0.000445
358.7095	0.001137
359.3541	-0.000192
359.9989	0.000736
360.6438	0.000926
361.2888	0.000968
361.9339	0.000146
362.5791	0.001411
363.2245	0.000547
363.8699	0.001791
364.5155	0.000863
365.1612	-0.001267
365.8071	-0.000107
366.4530	-0.000381
367.0991	-0.000192
367.7453	0.000547
368.3916	0.001411
369.0380	-0.000192
369.6845	0.001580
370.3312	0.002128
370.9780	-0.000107
371.6249	0.001643
372.2719	0.000146
372.9190	0.000504
373.5663	0.000968
374.2136	0.001538
374.8611	-0.000550
375.5087	0.000926
376.1564	0.000631
376.8043	0.001032
377.4522	0.001200
378.1003	0.000757
378.7485	0.000125
379.3968	0.000188
380.0452	0.000652
380.6938	0.000779
381.3424	0.001095
381.9912	0.000230
382.6401	0.000083
383.2891	0.000926
383.9382	-0.000234
384.5875	0.000230
385.2368	-0.000550
385.8863	0.001264
386.5359	-0.000824
387.1856	-0.001183
387.8355	-0.000128
388.4854	0.001348
389.1355	-0.000192
389.7856	0.000968
390.4359	0.001474
391.0863	0.000483
391.7369	0.001053
392.3875	0.000610
393.0383	0.001306
393.6891	0.000504
394.3401	0.000420
394.9912	-0.000571
395.6425	-0.000128
396.2938	0.000863
396.9453	0.000188
397.5968	-0.000002
398.2485	-0.000065
398.9003	-0.000550
399.5522	0.000230
400.2043	0.000863
400.8564	-0.000571
401.5087	0.000441
402.1610	0.001496
402.8135	0.001327
403.4661	0.001517
404.1189	0.001664
404.7717	0.000863
405.4246	-0.000086
406.0777	0.000905
406.7309	0.000420
407.3842	-0.000677
408.0376	0.001496
408.6911	0.000525
409.3448	0.000821
409.9985	0.000821
410.6524	0.000167
411.3064	0.000863
411.9605	0.001875
412.6147	0.002044
413.2690	0.001242
413.9234	0.002550
414.5780	0.001812
415.2326	0.002128
415.8874	0.002550
416.5423	0.002276
417.1973	0.002170
417.8524	0.002550
418.5077	0.002276
419.1630	0.001453
419.8185	0.004680
420.4741	0.004237
421.1298	0.004258
421.7856	0.003457
422.4415	0.004258
423.0975	0.005608
423.7536	0.005144
424.4099	0.003858
425.0663	0.005502
425.7228	0.007590
426.3793	0.005756
427.0361	0.005777
427.6929	0.006557
428.3498	0.007274
429.0068	0.007569
429.6640	0.007886
430.3213	0.008413
430.9787	0.008919
431.6362	0.010163
432.2938	0.007506
432.9515	0.007928
433.6093	0.009509
434.2673	0.012420
434.9253	0.010079
435.5835	0.011745
436.2418	0.011682
436.9001	0.011682
437.5586	0.011429
438.2173	0.011724
438.8760	0.012167
439.5348	0.013601
440.1938	0.013453
440.8528	0.015520
441.5120	0.017502
442.1713	0.019548
442.8307	0.017207
443.4902	0.020075
444.1498	0.020898
444.8095	0.020138
445.4694	0.018430
446.1293	0.021678
446.7894	0.021066
447.4496	0.021108
448.1098	0.019421
448.7702	0.021973
449.4307	0.020961
450.0914	0.022690
450.7521	0.022859
451.4129	0.021425
452.0739	0.021825
452.7349	0.022479
453.3961	0.023829
454.0574	0.021615
454.7188	0.021003
455.3803	0.025158
456.0419	0.023513
456.7036	0.022121
457.3654	0.023470
458.0274	0.024820
458.6894	0.024799
459.3516	0.027646
460.0138	0.027646
460.6762	0.026634
461.3387	0.026486
462.0013	0.026866
462.6640	0.023323
463.3268	0.024145
463.9897	0.027562
464.6528	0.029649
465.3159	0.031062
465.9792	0.032412
466.6425	0.031273
467.3060	0.028447
467.9696	0.028300
468.6333	0.028722
469.2970	0.026191
469.9610	0.025094
470.6250	0.023006
471.2891	0.024419
471.9533	0.025769
472.6177	0.024525
473.2821	0.028152
473.9467	0.025579
474.6113	0.026507
475.2761	0.028089
475.9410	0.028574
476.6060	0.028532
477.2711	0.027646
477.9363	0.028152
478.6016	0.029375
479.2670	0.027013
479.9325	0.029776
480.5982	0.033741
481.2639	0.028110
481.9298	0.033804
482.5957	0.031843
483.2618	0.027920
483.9280	0.030472
484.5943	0.033087
485.2606	0.039393
485.9271	0.084270
486.5937	0.103335
487.2605	0.060946
487.9273	0.039941
488.5942	0.033952
489.2612	0.033256
489.9284	0.032117
490.5956	0.031358
491.2630	0.033677
491.9304	0.029966
492.5980	0.030936
493.2657	0.032497
493.9334	0.033741
494.6013	0.032433
495.2693	0.031273
495.9374	0.028722
496.6056	0.035301
497.2739	0.033867
497.9423	0.031231
498.6109	0.032454
499.2795	0.032518
499.9482	0.032813
500.6171	0.032982
501.2860	0.031273
501.9551	0.033235
502.6242	0.033171
503.2935	0.034458
503.9628	0.034289
504.6323	0.029544
505.3019	0.032834
505.9716	0.032370
506.6414	0.031147
507.3113	0.031484
507.9813	0.030577
508.6514	0.028279
509.3216	0.032792
509.9919	0.029228
510.6623	0.028511
511.3329	0.029396
512.0035	0.029797
512.6742	0.026317
513.3451	0.028616
514.0160	0.026613
514.6871	0.026802
515.3582	0.027372
516.0295	0.025010
516.7008	0.027773
517.3723	0.026402
518.0439	0.025853
518.7155	0.025748
519.3873	0.026423
520.0592	0.027098
520.7312	0.023850
521.4033	0.023787
522.0755	0.023407
522.7478	0.022079
523.4202	0.022542
524.0927	0.024567
524.7653	0.023977
525.4380	0.021551
526.1108	0.023428
526.7837	0.023133
527.4568	0.023217
528.1299	0.022542
528.8031	0.027393
529.4765	0.025748
530.1499	0.026465
530.8234	0.023049
531.4971	0.022247
532.1708	0.022985
532.8447	0.025896
533.5186	0.027077
534.1927	0.027562
534.8668	0.028827
535.5411	0.029797
536.2155	0.027667
536.8899	0.027372
537.5645	0.025389
538.2392	0.027667
538.9139	0.027920
539.5888	0.028869
540.2638	0.029396
540.9389	0.026929
541.6140	0.030303
542.2893	0.028785
542.9647	0.030113
543.6402	0.029291
544.3158	0.031674
544.9915	0.031041
545.6673	0.031147
546.3432	0.030472
547.0192	0.029460
547.6953	0.032581
548.3715	0.036124
549.0478	0.035576
549.7242	0.031252
550.4007	0.031885
551.0773	0.029860
551.7540	0.027773
552.4308	0.032813
553.1077	0.035491
553.7847	0.035386
554.4618	0.034310
555.1390	0.030388
555.8163	0.034732
556.4937	0.035449
557.1712	0.032623
557.8488	0.032454
558.5266	0.033804
559.2044	0.029713
559.8823	0.030894
560.5603	0.036039
561.2384	0.036735
561.9166	0.038233
562.5949	0.036904
563.2733	0.036419
563.9519	0.036820
564.6305	0.039709
565.3092	0.039709
565.9880	0.039498
566.6669	0.043062
567.3459	0.045213
568.0250	0.050359
568.7043	0.056201
569.3836	0.065353
570.0630	0.087412
570.7425	0.095490
571.4221	0.108164
572.1018	0.116304
572.7816	0.109619
573.4615	0.109134
574.1415	0.128178
574.8216	0.146061
575.5018	0.151291
576.1821	0.131847
576.8626	0.141126
577.5431	0.153843
578.2237	0.206502
578.9044	0.169892
579.5851	0.153506
580.2660	0.163186
580.9470	0.157977
581.6281	0.231767
582.3093	0.248174
582.9906	0.200598
583.6720	0.157597
584.3535	0.148233
585.0351	0.160022
585.7167	0.178074
586.3985	0.162932
587.0804	0.148866
587.7624	0.173076
588.4445	0.157302
589.1266	0.141654
589.8089	0.120733
590.4913	0.111813
591.1737	0.099982
591.8563	0.099201
592.5389	0.097746
593.2217	0.142371
593.9046	0.146799
594.5875	0.126554
595.2705	0.139376
595.9537	0.132627
596.6369	0.108122
597.3203	0.101858
598.0037	0.105929
598.6872	0.100551
599.3709	0.133745
600.0546	0.128895
600.7384	0.129527
601.4223	0.134652
602.1064	0.119847
602.7905	0.120079
603.4747	0.126680
604.1590	0.130898
604.8434	0.113985
605.5279	0.112762
606.2125	0.128431
606.8972	0.115461
607.5819	0.113879
608.2668	0.108270
608.9518	0.101774
609.6369	0.093697
610.3220	0.106477
611.0073	0.101753
611.6927	0.097725
612.3781	0.093001
613.0637	0.091799
613.7493	0.089395
614.4351	0.091293
615.1209	0.088783
615.8068	0.093107
616.4929	0.085198
617.1790	0.076994
617.8652	0.077163
618.5515	0.075645
619.2379	0.066808
619.9244	0.063160
620.6110	0.069866
621.2977	0.057065
621.9845	0.054619
622.6714	0.058584
623.3584	0.062696
624.0454	0.061789
624.7326	0.065079
625.4199	0.061389
626.1072	0.056053
626.7947	0.049747
627.4822	0.051013
628.1698	0.048313
628.8576	0.042092
629.5454	0.044791
630.2333	0.044117
630.9213	0.042915
631.6094	0.036841
632.2976	0.039941
632.9859	0.032644
633.6743	0.032307
634.3628	0.030915
635.0514	0.031041
635.7400	0.028700
636.4288	0.031526
637.1177	0.032918
637.8066	0.031062
638.4957	0.029333
639.1848	0.030620
639.8740	0.027244
640.5633	0.026061
641.2528	0.025092
641.9423	0.024054
642.6319	0.021342
643.3216	0.021548
644.0113	0.021738
644.7012	0.018216
645.3912	0.018390
646.0812	0.021106
646.7714	0.018359
647.4616	0.018336
648.1520	0.019478
648.8424	0.022076
649.5329	0.023174
650.2236	0.021545
650.9143	0.020695
651.6051	0.022663
652.2960	0.022449
652.9870	0.022459
653.6780	0.024247
654.3692	0.024837
655.0605	0.029069
655.7518	0.343706
656.4433	0.980611
657.1348	0.772797
657.8264	0.428580
658.5181	0.304580
659.2099	0.247035
659.9018	0.081749
660.5938	0.026053
661.2859	0.019126
661.9781	0.018908
662.6704	0.016989
663.3627	0.014916
664.0552	0.017180
664.7477	0.015350
665.4403	0.017707
666.1330	0.018837
666.8259	0.016637
667.5188	0.016158
668.2117	0.015228
668.9048	0.015457
669.5980	0.015014
670.2913	0.014381
670.9846	0.015984
671.6781	0.020455
672.3716	0.022458
673.0652	0.026528
673.7589	0.023597
674.4527	0.022859
675.1466	0.020412
675.8406	0.018746
676.5347	0.019927
677.2288	0.017987
677.9231	0.020813
678.6174	0.021636
679.3119	0.024166
680.0064	0.026760
680.7010	0.027013
681.3957	0.026128
682.0905	0.024947
682.7854	0.020834
683.4803	0.022163
684.1754	0.022669
684.8705	0.028279
685.5658	0.029903
686.2611	0.032033
686.9565	0.030198
687.6520	0.032876
688.3476	0.027983
689.0433	0.027751
689.7390	0.026149
690.4349	0.024694
691.1308	0.026170
691.8269	0.026845
692.5230	0.028321
693.2192	0.030071
693.9155	0.026992
694.6119	0.026739
695.3083	0.026592
696.0049	0.021615
696.7016	0.022901
697.3983	0.031041
698.0951	0.028743
698.7920	0.026739
699.4890	0.027498
700.1861	0.023365
700.8833	0.022732
701.5806	0.019949
702.2779	0.020813
702.9753	0.022922
703.6729	0.022121
704.3705	0.019485
705.0682	0.018768
705.7660	0.019295
706.4638	0.019548
707.1618	0.025875
707.8599	0.028764
708.5580	0.028975
709.2562	0.026613
709.9545	0.027182
710.6529	0.025474
711.3514	0.023723
712.0500	0.022332
712.7486	0.020687
713.4474	0.022669
714.1462	0.026317
714.8451	0.026908
715.5441	0.024483
716.2432	0.023871
716.9424	0.020223
717.6416	0.020898
718.3410	0.021235
719.0404	0.020138
719.7399	0.021720
720.4395	0.023323
721.1392	0.022310
721.8390	0.020581
722.5388	0.023133
723.2388	0.019379
723.9388	0.020855
724.6389	0.019738
725.3391	0.021593
726.0394	0.025179
726.7398	0.023934
727.4403	0.023892
728.1408	0.023977
728.8414	0.024841
729.5421	0.026507
730.2429	0.029523
730.9438	0.031421
731.6448	0.031758
732.3458	0.031189
733.0470	0.033488
733.7482	0.031653
734.4495	0.038739
735.1509	0.036419
735.8524	0.036904
736.5539	0.037157
737.2556	0.036883
737.9573	0.035533
738.6591	0.031147
739.3610	0.034563
740.0630	0.034437
740.7651	0.031168
741.4672	0.026592
742.1695	0.024272
742.8718	0.025326
743.5742	0.021994
744.2767	0.023365
744.9792	0.021720
745.6819	0.021193
746.3846	0.021256
747.0874	0.022289
747.7903	0.022100
748.4933	0.021404
749.1964	0.021889
749.8995	0.027688
750.6028	0.029586
751.3061	0.028511
752.0095	0.032391
752.7130	0.029017
753.4166	0.027161
754.1202	0.031990
754.8239	0.030493
755.5278	0.029481
756.2317	0.031379
756.9356	0.037410
757.6397	0.042240
758.3438	0.044644
759.0481	0.039983
759.7524	0.045783
760.4568	0.047217
761.1613	0.046900
761.8658	0.042155
762.5705	0.037305
763.2752	0.036967
763.9800	0.036525
764.6849	0.041502
765.3898	0.044306
766.0949	0.039772
766.8000	0.032623
767.5052	0.027815
768.2105	0.030936
768.9159	0.036018
769.6214	0.036482
770.3269	0.035934
771.0325	0.035618
771.7382	0.034880
772.4440	0.031611
773.1499	0.030767
773.8558	0.029207
774.5618	0.026360
775.2679	0.023238
775.9741	0.021994
776.6804	0.017671
777.3868	0.019253
778.0932	0.017819
778.7997	0.021804
779.5063	0.023259
780.2130	0.022753
780.9197	0.022353
781.6265	0.027414
782.3335	0.025727
783.0405	0.027266
783.7475	0.025368
784.4547	0.022922
785.1619	0.022205
785.8692	0.022648
786.5766	0.021446
787.2841	0.019759
787.9917	0.023491
788.6993	0.022669
789.4070	0.024166
790.1148	0.021172
790.8227	0.020054
791.5306	0.017186
792.2387	0.018536
792.9468	0.015457
793.6550	0.016996
794.3632	0.023702
795.0716	0.024483
795.7800	0.024040
796.4885	0.018430
797.1971	0.016680
797.9058	0.018261
798.6145	0.016701
799.3233	0.016532
800.0322	0.015140
800.7412	0.016996
801.4503	0.014761
802.1594	0.013896
802.8686	0.012167
803.5779	0.014022
804.2873	0.014318
804.9968	0.013073
805.7063	0.012715
806.4159	0.016511
807.1256	0.017797
807.8354	0.016848
808.5452	0.017650
809.2551	0.015857
809.9651	0.016195
810.6752	0.014212
811.3853	0.014929
812.0956	0.013327
812.8059	0.012947
813.5163	0.012673
814.2267	0.014065
814.9373	0.013875
815.6479	0.012209
816.3586	0.011070
817.0694	0.010796
817.7802	0.011197
818.4912	0.010775
819.2022	0.010184
819.9133	0.009467
820.6244	0.011829
821.3357	0.010733
822.0470	0.010374
822.7584	0.008371
823.4698	0.009889
824.1814	0.008708
824.8930	0.007738
825.6047	0.009109
826.3165	0.011154
827.0283	0.009657
827.7402	0.012525
828.4522	0.009467
829.1643	0.011175
829.8765	0.008581
830.5887	0.008813
831.3010	0.008054
832.0134	0.005165
832.7259	0.006430
833.4384	0.006768
834.1510	0.008223
834.8637	0.008729
835.5765	0.007590
836.2893	0.006641
837.0022	0.006979
837.7152	0.005207
838.4283	0.005418
839.1414	0.005671
839.8546	0.006451
840.5679	0.005629
841.2813	0.006747
841.9947	0.005355
842.7082	0.003984
843.4218	0.003731
844.1355	0.003541
844.8492	0.005355
845.5631	0.004912
846.2770	0.003351
846.9909	0.003858
847.7050	0.005081
848.4191	0.002107
849.1333	0.003288
849.8475	0.005355
850.5619	0.004216
851.2763	0.003309
851.9908	0.003330
852.7053	0.004469
853.4200	0.009467
854.1347	0.011091
854.8495	0.011871
855.5643	0.009404
856.2792	0.009172
856.9942	0.009256
857.7093	0.006915
858.4245	0.006937
859.1397	0.007548
859.8550	0.005587
860.5704	0.005629
861.2858	0.005271
862.0013	0.005629
862.7169	0.004743
863.4326	0.003836
864.1483	0.006747
864.8642	0.005861
865.5800	0.003562
866.2960	0.003942
867.0120	0.002655
867.7281	0.005123
868.4443	0.003647
869.1606	0.005060
869.8769	0.002192
870.5933	0.003457
871.3097	0.004870
872.0263	0.003836
872.7429	0.004090
873.4596	0.003647
874.1763	0.003246
874.8932	0.003963
875.6101	0.004026
876.3270	0.004785
877.0441	0.004912
877.7612	0.004385
878.4784	0.004975
879.1957	0.006051
879.9130	0.007569
880.6304	0.006304
881.3479	0.006810
882.0654	0.006198
882.7831	0.006283
883.5007	0.004870
884.2185	0.004111
884.9363	0.004933
885.6542	0.005207
886.3722	0.005671
887.0903	0.006789
887.8084	0.003858
888.5266	0.003204
889.2448	0.004701
889.9632	0.004807
890.6816	0.002909
891.4001	0.003858
892.1186	0.004511
892.8372	0.004701
893.5559	0.003077
894.2747	0.004090
894.9935	0.002255
895.7124	0.005249
896.4314	0.002634
897.1504	0.004406
897.8695	0.002803
898.5887	0.004216
899.3079	0.004068
900.0272	0.002782
900.7466	0.002297
901.4661	0.004385
902.1856	0.004237
902.9052	0.004300
903.6249	0.002719
904.3446	0.003541
905.0644	0.003858
905.7843	0.004237
906.5043	0.003562
907.2243	0.004807
907.9444	0.004849
908.6645	0.003541
909.3847	0.002276
910.1050	0.004258
910.8254	0.003478
911.5458	0.003183
912.2663	0.002065
912.9869	0.002655
913.7075	0.002381
914.4283	0.002170
915.1490	0.002107
915.8699	0.002487
916.5908	0.002318
917.3118	0.003056
918.0328	0.002951
918.7539	0.005376
919.4751	0.002824
920.1964	0.003836
920.9177	0.003836
921.6391	0.003583
922.3606	0.003183
923.0821	0.002339
923.8037	0.002339
924.5254	0.002698
925.2471	0.001327
925.9689	0.003562
926.6908	0.002909
927.4127	0.002339
928.1347	0.002719
928.8568	0.002213
929.5789	0.001200
930.3011	0.002002
931.0234	0.002023
931.7457	0.003225
932.4681	0.001264
933.1906	0.001643
933.9131	0.002339
934.6358	0.002487
935.3584	0.000357
936.0812	0.002065
936.8040	0.000673
937.5269	0.002023
938.2498	0.001749
938.9728	0.002170
939.6959	0.001285
940.4190	0.001032
941.1422	0.002086
941.8655	-0.000044
942.5889	0.001285
943.3123	0.001664
944.0357	0.001496
944.7593	0.001116
945.4829	0.000504
946.2066	0.000062
946.9303	0.001200
947.6541	0.000378
948.3780	0.000399
949.1019	-0.000466
949.8259	-0.000192
950.5500	-0.000866
951.2741	0.000884
951.9983	0.000315
952.7226	0.001580
953.4469	0.001179
954.1713	0.001664
954.8958	0.000420
955.6203	0.000589
956.3449	0.000800
957.0696	0.002065
957.7943	0.001559
958.5191	0.000336
959.2439	-0.001225
959.9688	0.002529
960.6938	0.000483
961.4189	0.000589
962.1440	0.000736
962.8692	0.001453
963.5944	0.001011
964.3197	0.001791
965.0451	0.000694
965.7705	0.000188
966.4960	0.001095
967.2216	0.000589
967.9472	0.000293
968.6729	0.001538
969.3987	0.000062
970.1245	0.000420
970.8504	0.000125
971.5763	0.001116
972.3023	0.000652
973.0284	-0.000002
973.7545	0.000905
974.4807	0.000547
975.2070	0.000441
975.9333	0.001116
976.6597	0.001517
977.3862	0.001664
978.1127	0.001685
978.8393	0.001706
979.5659	-0.000402
980.2926	0.000230
981.0194	0.000019
981.7462	0.001264
982.4731	0.000378
983.2001	0.001116
983.9271	0.000441
984.6542	0.000104
985.3814	-0.000445
986.1086	0.000104
986.8358	-0.000044
987.5632	0.001496
988.2906	-0.000761
989.0180	0.000040
989.7456	0.000715
990.4732	0.000926
991.2008	-0.001499
991.9285	0.001622
992.6563	0.001559
993.3841	0.001791
994.1120	-0.000192
994.8400	-0.000424
995.5680	0.001011
996.2961	0.000694
997.0242	0.000357
997.7524	0.000167
998.4807	0.000019
999.2090	0.000062
999.9374	-0.000297
1000.67	0.000230
1001.39	0.000968
1002.12	0.000525
1002.85	0.001116
1003.58	0.001432
1004.31	0.000715
1005.04	-0.001056
1005.77	0.001327
1006.5	-0.000023
1007.22	0.001221
1007.95	0.000673
1008.68	0.001791
1009.41	0.000104
1010.14	0.001643
1010.87	-0.000128
1011.6	0.000568
1012.33	0.000800
1013.06	0.000968
1013.79	0.001643
1014.52	0.000547
1015.25	0.000251
1015.98	-0.001077
1016.71	0.000884
1017.44	0.000251
1018.17	-0.001668
1018.9	-0.000023
1019.63	0.000420
1020.36	-0.001183
1021.09	0.000104
1021.82	0.000525
1022.55	-0.000023
1023.03	-0.000044