File: MRG-061-G-1_after_aminolysis_spectrum_2025-06-20_14-42-59.txt
# Wavelength (nm)	Intensity (a.u.)
197.7802	0.001170
198.3922	0.000474
199.0044	0.000770
199.6168	0.000158
200.2292	0.001086
200.8418	0.000369
201.4546	0.001676
202.0674	0.000158
202.6805	0.000875
203.2936	0.001571
203.9069	0.002013
204.5203	-0.000706
205.1338	0.000011
205.7475	0.000179
206.3614	0.000791
206.9753	0.001275
207.5894	0.001128
208.2036	0.001592
208.8180	0.001086
209.4325	0.000432
210.0471	0.000854
210.6618	0.000411
211.2767	0.001528
211.8918	0.000685
212.5069	0.000875
213.1222	-0.000812
213.7376	0.000959
214.3532	0.001402
214.9689	0.002351
215.5847	-0.000242
216.2007	0.001697
216.8168	0.000685
217.4330	0.001065
218.0494	-0.000938
218.6659	-0.000053
219.2825	0.000474
219.8992	0.000938
220.5161	0.000264
221.1332	0.000727
221.7503	0.001465
222.3676	0.000327
222.9850	0.000601
223.6026	0.000285
224.2203	0.000242
224.8381	-0.000179
225.4561	0.001465
226.0742	0.000306
226.6924	0.000348
227.3107	0.002034
227.9292	-0.000980
228.5478	0.000685
229.1666	-0.000158
229.7855	0.002245
230.4045	-0.000158
231.0236	0.002056
231.6429	0.000917
232.2623	0.000285
232.8818	0.001086
233.5015	0.000179
234.1213	0.001402
234.7413	0.000748
235.3613	0.001318
235.9815	0.000074
236.6018	-0.000896
237.2223	0.000854
237.8429	-0.001254
238.4636	0.001866
239.0845	0.001465
239.7055	0.000622
240.3266	0.000032
240.9478	0.001086
241.5692	0.001423
242.1907	-0.000453
242.8124	0.000580
243.4341	0.000011
244.0560	-0.000833
244.6781	0.000369
245.3002	0.000727
245.9225	0.000474
246.5449	0.000369
247.1675	0.000980
247.7902	0.000095
248.4130	0.001507
249.0359	-0.000833
249.6590	0.001507
250.2822	-0.000432
250.9056	0.002034
251.5290	-0.000116
252.1526	0.000727
252.7763	-0.000854
253.4002	0.000264
254.0242	0.000833
254.6483	-0.000495
255.2725	-0.000474
255.8969	0.001170
256.5214	-0.000833
257.1460	0.001023
257.7708	-0.000411
258.3957	0.000854
259.0207	0.000791
259.6459	0.001339
260.2711	-0.000032
260.8965	0.000095
261.5221	0.000053
262.1477	-0.000011
262.7735	0.000242
263.3995	0.001360
264.0255	-0.000664
264.6517	0.000664
265.2780	0.001360
265.9044	0.002182
266.5310	0.000032
267.1577	-0.000158
267.7845	-0.001191
268.4114	0.000411
269.0385	-0.000369
269.6657	-0.000095
270.2931	0.000327
270.9205	0.000011
271.5481	0.000200
272.1758	0.001760
272.8037	-0.000306
273.4316	0.001528
274.0597	0.001128
274.6880	0.000411
275.3163	0.001360
275.9448	0.000495
276.5734	0.000011
277.2022	0.000664
277.8310	0.001360
278.4600	-0.000221
279.0891	-0.000938
279.7184	0.000580
280.3477	-0.000622
280.9772	0.000495
281.6069	-0.000369
282.2366	0.001065
282.8665	-0.000411
283.4965	0.001128
284.1266	0.000242
284.7569	0.001781
285.3873	0.000074
286.0178	0.000453
286.6484	0.001360
287.2792	0.001170
287.9101	0.000727
288.5411	0.000601
289.1723	-0.000980
289.8035	-0.000854
290.4349	0.001402
291.0665	0.000453
291.6981	0.000348
292.3299	0.001275
292.9618	0.001845
293.5938	0.000369
294.2260	-0.001676
294.8582	0.001107
295.4906	0.000390
296.1232	0.000833
296.7558	-0.000032
297.3886	-0.000559
298.0215	-0.000179
298.6545	0.001170
299.2877	0.000917
299.9210	0.002372
300.5544	-0.000053
301.1879	0.001191
301.8215	0.001044
302.4553	0.000432
303.0892	-0.000453
303.7233	0.000727
304.3574	0.001128
304.9917	0.001254
305.6261	0.001381
306.2606	0.001254
306.8953	-0.000706
307.5301	0.000854
308.1650	-0.000432
308.8000	0.001086
309.4351	-0.000011
310.0704	0.001613
310.7058	-0.000706
311.3413	0.001571
311.9770	0.000791
312.6127	0.001634
313.2486	0.001528
313.8846	-0.000474
314.5208	0.000432
315.1570	-0.000032
315.7934	0.000221
316.4299	0.001044
317.0666	-0.000327
317.7033	0.000896
318.3402	0.001507
318.9772	0.001044
319.6143	-0.000685
320.2516	0.000706
320.8890	0.001191
321.5265	0.001149
322.1641	-0.000622
322.8018	0.000938
323.4397	0.000348
324.0777	-0.000095
324.7158	0.000327
325.3540	0.001381
325.9924	-0.000495
326.6308	0.001929
327.2694	0.001634
327.9082	-0.000137
328.5470	0.001676
329.1860	0.001128
329.8251	0.002646
330.4643	-0.000179
331.1036	-0.000053
331.7431	0.000179
332.3826	-0.000158
333.0223	0.000833
333.6622	0.001128
334.3021	0.001676
334.9422	0.000074
335.5823	0.000474
336.2227	-0.000285
336.8631	0.001212
337.5036	0.000938
338.1443	-0.000032
338.7851	0.000369
339.4260	0.001528
340.0670	-0.000643
340.7082	0.000242
341.3495	0.001023
341.9909	-0.001001
342.6324	0.000980
343.2740	-0.000221
343.9158	0.000495
344.5577	-0.000622
345.1997	0.000179
345.8418	0.000580
346.4840	0.000116
347.1264	0.000664
347.7689	0.000221
348.4115	0.000032
349.0542	0.000896
349.6971	-0.000011
350.3400	0.000306
350.9831	0.000917
351.6263	0.000727
352.2696	0.000748
352.9131	0.000011
353.5566	0.000327
354.2003	0.000179
354.8441	0.000580
355.4881	-0.001613
356.1321	-0.000453
356.7763	0.000327
357.4206	0.000580
358.0650	-0.000137
358.7095	-0.000306
359.3541	-0.000601
359.9989	0.002266
360.6438	0.000348
361.2888	0.001001
361.9339	0.001929
362.5791	0.001318
363.2245	0.000917
363.8699	0.001065
364.5155	0.001339
365.1612	0.001044
365.8071	0.000896
366.4530	0.000538
367.0991	0.000495
367.7453	0.000116
368.3916	-0.000221
369.0380	0.000179
369.6845	-0.001254
370.3312	0.000327
370.9780	0.000053
371.6249	0.001149
372.2719	-0.000390
372.9190	0.001676
373.5663	-0.000791
374.2136	0.002477
374.8611	0.000791
375.5087	0.001086
376.1564	0.000664
376.8043	0.001065
377.4522	0.000601
378.1003	0.000770
378.7485	0.000938
379.3968	-0.000053
380.0452	0.000896
380.6938	0.001444
381.3424	0.000770
381.9912	0.000812
382.6401	0.000748
383.2891	0.001971
383.9382	0.000517
384.5875	0.001697
385.2368	0.000917
385.8863	0.001212
386.5359	0.000348
387.1856	0.000685
387.8355	-0.000664
388.4854	0.000938
389.1355	-0.000727
389.7856	0.000706
390.4359	0.001044
391.0863	-0.000074
391.7369	0.001275
392.3875	0.000854
393.0383	0.000221
393.6891	-0.000643
394.3401	-0.000179
394.9912	0.000622
395.6425	-0.000474
396.2938	0.001971
396.9453	0.001212
397.5968	0.000095
398.2485	0.000179
398.9003	0.001191
399.5522	0.000664
400.2043	0.001571
400.8564	0.001023
401.5087	0.001971
402.1610	0.000833
402.8135	0.000242
403.4661	0.000917
404.1189	0.001992
404.7717	-0.000158
405.4246	0.000643
406.0777	0.000474
406.7309	0.000938
407.3842	0.001318
408.0376	0.002330
408.6911	0.000517
409.3448	0.001381
409.9985	-0.000495
410.6524	0.001697
411.3064	0.000264
411.9605	0.000938
412.6147	0.001191
413.2690	0.000580
413.9234	0.001402
414.5780	0.001655
415.2326	0.000896
415.8874	0.002857
416.5423	0.001718
417.1973	0.001887
417.8524	0.002498
418.5077	0.002351
419.1630	0.003004
419.8185	0.003869
420.4741	0.001887
421.1298	0.004164
421.7856	0.004185
422.4415	0.003742
423.0975	0.002857
423.7536	0.004417
424.4099	0.004143
425.0663	0.006504
425.7228	0.004396
426.3793	0.004501
427.0361	0.005007
427.6929	0.007094
428.3498	0.005703
429.0068	0.006124
429.6640	0.005134
430.3213	0.009076
430.9787	0.010320
431.6362	0.009793
432.2938	0.008170
432.9515	0.008697
433.6093	0.009919
434.2673	0.011564
434.9253	0.010742
435.5835	0.011838
436.2418	0.010193
436.9001	0.013124
437.5586	0.013714
438.2173	0.014305
438.8760	0.013609
439.5348	0.013398
440.1938	0.014895
440.8528	0.015253
441.5120	0.017593
442.1713	0.018057
442.8307	0.020608
443.4902	0.020102
444.1498	0.019343
444.8095	0.020861
445.4694	0.020271
446.1293	0.020967
446.7894	0.021199
447.4496	0.021241
448.1098	0.023960
448.7702	0.020397
449.4307	0.021262
450.0914	0.023939
450.7521	0.023560
451.4129	0.022948
452.0739	0.024572
452.7349	0.022611
453.3961	0.023728
454.0574	0.023433
454.7188	0.020608
455.3803	0.024867
456.0419	0.023307
456.7036	0.022421
457.3654	0.024382
458.0274	0.026828
458.6894	0.027081
459.3516	0.025816
460.0138	0.026596
460.6762	0.027797
461.3387	0.026807
462.0013	0.025373
462.6640	0.023075
463.3268	0.025520
463.9897	0.028493
464.6528	0.029653
465.3159	0.030939
465.9792	0.029526
466.6425	0.027903
467.3060	0.024719
467.9696	0.023370
468.6333	0.025542
469.2970	0.026005
469.9610	0.023391
470.6250	0.022358
471.2891	0.021873
471.9533	0.023497
472.6177	0.023265
473.2821	0.026195
473.9467	0.026385
474.6113	0.027102
475.2761	0.026069
475.9410	0.026975
476.6060	0.026764
477.2711	0.026912
477.9363	0.025014
478.6016	0.028029
479.2670	0.026301
479.9325	0.026343
480.5982	0.029716
481.2639	0.029147
481.9298	0.030391
482.5957	0.028662
483.2618	0.027144
483.9280	0.027565
484.5943	0.031740
485.2606	0.035851
485.9271	0.079914
486.5937	0.094524
487.2605	0.058030
487.9273	0.037559
488.5942	0.029421
489.2612	0.032183
489.9284	0.029779
490.5956	0.028472
491.2630	0.028198
491.9304	0.029020
492.5980	0.027924
493.2657	0.030264
493.9334	0.030854
494.6013	0.029632
495.2693	0.027671
495.9374	0.027481
496.6056	0.033426
497.2739	0.031571
497.9423	0.028641
498.6109	0.027397
499.2795	0.031403
499.9482	0.031972
500.6171	0.030116
501.2860	0.030011
501.9551	0.032267
502.6242	0.030580
503.2935	0.031107
503.9628	0.034333
504.6323	0.029990
505.3019	0.028978
505.9716	0.029020
506.6414	0.029948
507.3113	0.029484
507.9813	0.029779
508.6514	0.030159
509.3216	0.029632
509.9919	0.027966
510.6623	0.028662
511.3329	0.026301
512.0035	0.027523
512.6742	0.027207
513.3451	0.025647
514.0160	0.024825
514.6871	0.026090
515.3582	0.023855
516.0295	0.024277
516.7008	0.022991
517.3723	0.025457
518.0439	0.021789
518.7155	0.023328
519.3873	0.023138
520.0592	0.024867
520.7312	0.022885
521.4033	0.022927
522.0755	0.022274
522.7478	0.020756
523.4202	0.021325
524.0927	0.020313
524.7653	0.022105
525.4380	0.025099
526.1108	0.021135
526.7837	0.020376
527.4568	0.020882
528.1299	0.020650
528.8031	0.021578
529.4765	0.024066
530.1499	0.021915
530.8234	0.021747
531.4971	0.021093
532.1708	0.021388
532.8447	0.021325
533.5186	0.024783
534.1927	0.026469
534.8668	0.026554
535.5411	0.027713
536.2155	0.023897
536.8899	0.024361
537.5645	0.021915
538.2392	0.025352
538.9139	0.027270
539.5888	0.027629
540.2638	0.027903
540.9389	0.028620
541.6140	0.027207
542.2893	0.028029
542.9647	0.028472
543.6402	0.028430
544.3158	0.027882
544.9915	0.030222
545.6673	0.030201
546.3432	0.029168
547.0192	0.027481
547.6953	0.029547
548.3715	0.034923
549.0478	0.032077
549.7242	0.030053
550.4007	0.029379
551.0773	0.028873
551.7540	0.027249
552.4308	0.032246
553.1077	0.032794
553.7847	0.029990
554.4618	0.030517
555.1390	0.028093
555.8163	0.033764
556.4937	0.031360
557.1712	0.031550
557.8488	0.029020
558.5266	0.030116
559.2044	0.028662
559.8823	0.028641
560.5603	0.031044
561.2384	0.037791
561.9166	0.035935
562.5949	0.033595
563.2733	0.032815
563.9519	0.033701
564.6305	0.037580
565.3092	0.038781
565.9880	0.037854
566.6669	0.038950
567.3459	0.038845
568.0250	0.049238
568.7043	0.050651
569.3836	0.062605
570.0630	0.079471
570.7425	0.088326
571.4221	0.099162
572.1018	0.107426
572.7816	0.105740
573.4615	0.106372
574.1415	0.122205
574.8216	0.134370
575.5018	0.142655
576.1821	0.122290
576.8626	0.130786
577.5431	0.142234
578.2237	0.191546
578.9044	0.161630
579.5851	0.142908
580.2660	0.154546
580.9470	0.144384
581.6281	0.207442
582.3093	0.225320
582.9906	0.181511
583.6720	0.145249
584.3535	0.129816
585.0351	0.144490
585.7167	0.164750
586.3985	0.150625
587.0804	0.140568
587.7624	0.156992
588.4445	0.139619
589.1266	0.129921
589.8089	0.112739
590.4913	0.103716
591.1737	0.092816
591.8563	0.086681
592.5389	0.088115
593.2217	0.135593
593.9046	0.135846
594.5875	0.114447
595.2705	0.131819
595.9537	0.123302
596.6369	0.097686
597.3203	0.097728
598.0037	0.101692
598.6872	0.095198
599.3709	0.128129
600.0546	0.118326
600.7384	0.120772
601.4223	0.123913
602.1064	0.109535
602.7905	0.108881
603.4747	0.124524
604.1590	0.120223
604.8434	0.105445
605.5279	0.101882
606.2125	0.114468
606.8972	0.100216
607.5819	0.104201
608.2668	0.098782
608.9518	0.092416
609.6369	0.087651
610.3220	0.096737
611.0073	0.092753
611.6927	0.086533
612.3781	0.086344
613.0637	0.085732
613.7493	0.084383
614.4351	0.084973
615.1209	0.084109
615.8068	0.085416
616.4929	0.077510
617.1790	0.068930
617.8652	0.069014
618.5515	0.068550
619.2379	0.061087
619.9244	0.057861
620.6110	0.064059
621.2977	0.051347
621.9845	0.050082
622.6714	0.053118
623.3584	0.056870
624.0454	0.054446
624.7326	0.059527
625.4199	0.056723
626.1072	0.052380
626.7947	0.047278
627.4822	0.042597
628.1698	0.042555
628.8576	0.037053
629.5454	0.041670
630.2333	0.039077
630.9213	0.036821
631.6094	0.034691
632.2976	0.032942
632.9859	0.031002
633.6743	0.028556
634.3628	0.026975
635.0514	0.024783
635.7400	0.027228
636.4288	0.030159
637.1177	0.029800
637.8066	0.027629
638.4957	0.027207
639.1848	0.027418
639.8740	0.025931
640.5633	0.026044
641.2528	0.022605
641.9423	0.021538
642.6319	0.020064
643.3216	0.022136
644.0113	0.018398
644.7012	0.019494
645.3912	0.015870
646.0812	0.018798
646.7714	0.016147
647.4616	0.016880
648.1520	0.017972
648.8424	0.021015
649.5329	0.019568
650.2236	0.020563
650.9143	0.018006
651.6051	0.019368
652.2960	0.019371
652.9870	0.020911
653.6780	0.021447
654.3692	0.022367
655.0605	0.027048
655.7518	0.310909
656.4433	0.900518
657.1348	0.711919
657.8264	0.387616
658.5181	0.283263
659.2099	0.225857
659.9018	0.075843
660.5938	0.022793
661.2859	0.016808
661.9781	0.016060
662.6704	0.015448
663.3627	0.014461
664.0552	0.014821
664.7477	0.014267
665.4403	0.015631
666.1330	0.014544
666.8259	0.014162
667.5188	0.013490
668.2117	0.014670
668.9048	0.013335
669.5980	0.014916
670.2913	0.015274
670.9846	0.014241
671.6781	0.017298
672.3716	0.022189
673.0652	0.020756
673.7589	0.019259
674.4527	0.019554
675.1466	0.016539
675.8406	0.016982
676.5347	0.016771
677.2288	0.016539
677.9231	0.016603
678.6174	0.018479
679.3119	0.019196
680.0064	0.025078
680.7010	0.023054
681.3957	0.020946
682.0905	0.023454
682.7854	0.021873
683.4803	0.021135
684.1754	0.021367
684.8705	0.023750
685.5658	0.028008
686.2611	0.027776
686.9565	0.028725
687.6520	0.028915
688.3476	0.025183
689.0433	0.022421
689.7390	0.023222
690.4349	0.021241
691.1308	0.023201
691.8269	0.027102
692.5230	0.024361
693.2192	0.025563
693.9155	0.025310
694.6119	0.021409
695.3083	0.023475
696.0049	0.020355
696.7016	0.020060
697.3983	0.027776
698.0951	0.025373
698.7920	0.025752
699.4890	0.024192
700.1861	0.020081
700.8833	0.020440
701.5806	0.017825
702.2779	0.019870
702.9753	0.021051
703.6729	0.017235
704.3705	0.018563
705.0682	0.015548
705.7660	0.017762
706.4638	0.017657
707.1618	0.025394
707.8599	0.025057
708.5580	0.024213
709.2562	0.023265
709.9545	0.022189
710.6529	0.022084
711.3514	0.022358
712.0500	0.020946
712.7486	0.020650
713.4474	0.019554
714.1462	0.022611
714.8451	0.023686
715.5441	0.022548
716.2432	0.022211
716.9424	0.018057
717.6416	0.017404
718.3410	0.020524
719.0404	0.018964
719.7399	0.019828
720.4395	0.019470
721.1392	0.020165
721.8390	0.021409
722.5388	0.018458
723.2388	0.017404
723.9388	0.018416
724.6389	0.017931
725.3391	0.021915
726.0394	0.022948
726.7398	0.021662
727.4403	0.021430
728.1408	0.020988
728.8414	0.022864
729.5421	0.024192
730.2429	0.025563
730.9438	0.025900
731.6448	0.029568
732.3458	0.028367
733.0470	0.027755
733.7482	0.028556
734.4495	0.032878
735.1509	0.033616
735.8524	0.031150
736.5539	0.032056
737.2556	0.032288
737.9573	0.030095
738.6591	0.026722
739.3610	0.028430
740.0630	0.032773
740.7651	0.025626
741.4672	0.024234
742.1695	0.021599
742.8718	0.022590
743.5742	0.018774
744.2767	0.021536
744.9792	0.019786
745.6819	0.018816
746.3846	0.020187
747.0874	0.018795
747.7903	0.022442
748.4933	0.019322
749.1964	0.018500
749.8995	0.023307
750.6028	0.025225
751.3061	0.024572
752.0095	0.025921
752.7130	0.025584
753.4166	0.024087
754.1202	0.026469
754.8239	0.027228
755.5278	0.026048
756.2317	0.027840
756.9356	0.032878
757.6397	0.038444
758.3438	0.040236
759.0481	0.037221
759.7524	0.039245
760.4568	0.040679
761.1613	0.042534
761.8658	0.035387
762.5705	0.032920
763.2752	0.031107
763.9800	0.031993
764.6849	0.037538
765.3898	0.038402
766.0949	0.034649
766.8000	0.029716
767.5052	0.025267
768.2105	0.025689
768.9159	0.030686
769.6214	0.029906
770.3269	0.029737
771.0325	0.030686
771.7382	0.031550
772.4440	0.028093
773.1499	0.027270
773.8558	0.024677
774.5618	0.022400
775.2679	0.020081
775.9741	0.018015
776.6804	0.017340
777.3868	0.018774
778.0932	0.015801
778.7997	0.019090
779.5063	0.019196
780.2130	0.019470
780.9197	0.019849
781.6265	0.024108
782.3335	0.022442
783.0405	0.024509
783.7475	0.022485
784.4547	0.020819
785.1619	0.019069
785.8692	0.020903
786.5766	0.018395
787.2841	0.020313
787.9917	0.019723
788.6993	0.019449
789.4070	0.019259
790.1148	0.019533
790.8227	0.016961
791.5306	0.017720
792.2387	0.015970
792.9468	0.015696
793.6550	0.013440
794.3632	0.021409
795.0716	0.022274
795.7800	0.022485
796.4885	0.017762
797.1971	0.014684
797.9058	0.015211
798.6145	0.015380
799.3233	0.016054
800.0322	0.013588
800.7412	0.012871
801.4503	0.012491
802.1594	0.012154
802.8686	0.011311
803.5779	0.011353
804.2873	0.013440
804.9968	0.011079
805.7063	0.012597
806.4159	0.015021
807.1256	0.016455
807.8354	0.016792
808.5452	0.014832
809.2551	0.014094
809.9651	0.013018
810.6752	0.013082
811.3853	0.012850
812.0956	0.010678
812.8059	0.010067
813.5163	0.009456
814.2267	0.013335
814.9373	0.012323
815.6479	0.010425
816.3586	0.009835
817.0694	0.008338
817.7802	0.011922
818.4912	0.009645
819.2022	0.008739
819.9133	0.010025
820.6244	0.009181
821.3357	0.009751
822.0470	0.008127
822.7584	0.008528
823.4698	0.008844
824.1814	0.006588
824.8930	0.008275
825.6047	0.009034
826.3165	0.008444
827.0283	0.009814
827.7402	0.009709
828.4522	0.007938
829.1643	0.008781
829.8765	0.008317
830.5887	0.008127
831.3010	0.007073
832.0134	0.005450
832.7259	0.004902
833.4384	0.007642
834.1510	0.006124
834.8637	0.007094
835.5765	0.006673
836.2893	0.007706
837.0022	0.005134
837.7152	0.006209
838.4283	0.004881
839.1414	0.003742
839.8546	0.005766
840.5679	0.005049
841.2813	0.005682
841.9947	0.004522
842.7082	0.002688
843.4218	0.002899
844.1355	0.004733
844.8492	0.002709
845.5631	0.003763
846.2770	0.003890
846.9909	0.003552
847.7050	0.005218
848.4191	0.004480
849.1333	0.004122
849.8475	0.003700
850.5619	0.004817
851.2763	0.003953
851.9908	0.003236
852.7053	0.006040
853.4200	0.008907
854.1347	0.009962
854.8495	0.009392
855.5643	0.009877
856.2792	0.008802
856.9942	0.008633
857.7093	0.008591
858.4245	0.007642
859.1397	0.007537
859.8550	0.005387
860.5704	0.006082
861.2858	0.006462
862.0013	0.005724
862.7169	0.004122
863.4326	0.005640
864.1483	0.004480
864.8642	0.005260
865.5800	0.004396
866.2960	0.003321
867.0120	0.003278
867.7281	0.003721
868.4443	0.004417
869.1606	0.003447
869.8769	0.003890
870.5933	0.003426
871.3097	0.003552
872.0263	0.002730
872.7429	0.003131
873.4596	0.003595
874.1763	0.003025
874.8932	0.004986
875.6101	0.005366
876.3270	0.004796
877.0441	0.004607
877.7612	0.004396
878.4784	0.004923
879.1957	0.005893
879.9130	0.005155
880.6304	0.006019
881.3479	0.005850
882.0654	0.003911
882.7831	0.004902
883.5007	0.004037
884.2185	0.003110
884.9363	0.003953
885.6542	0.005344
886.3722	0.005724
887.0903	0.002772
887.8084	0.002941
888.5266	0.004902
889.2448	0.001803
889.9632	0.002330
890.6816	0.003995
891.4001	0.002836
892.1186	0.003763
892.8372	0.004902
893.5559	0.003911
894.2747	0.003953
894.9935	0.003616
895.7124	0.002140
896.4314	0.003995
897.1504	0.002920
897.8695	0.002836
898.5887	0.003173
899.3079	0.003342
900.0272	0.002372
900.7466	0.002857
901.4661	0.003700
902.1856	0.003489
902.9052	0.003173
903.6249	0.002477
904.3446	0.003995
905.0644	0.002498
905.7843	0.003974
906.5043	0.002793
907.2243	0.002330
907.9444	0.001760
908.6645	0.003004
909.3847	0.002836
910.1050	0.003215
910.8254	0.002625
911.5458	0.003194
912.2663	0.003194
912.9869	0.003595
913.7075	0.001781
914.4283	0.003974
915.1490	0.001992
915.8699	0.002709
916.5908	0.002709
917.3118	0.002983
918.0328	0.003236
918.7539	0.002983
919.4751	0.002772
920.1964	0.002604
920.9177	0.002477
921.6391	0.002646
922.3606	0.001908
923.0821	0.002625
923.8037	0.001275
924.5254	0.002245
925.2471	0.001360
925.9689	0.002519
926.6908	0.002456
927.4127	0.001971
928.1347	0.000833
928.8568	0.001845
929.5789	0.000727
930.3011	0.001107
931.0234	0.000622
931.7457	0.002077
932.4681	0.001170
933.1906	0.003299
933.9131	0.001824
934.6358	0.001971
935.3584	0.002498
936.0812	0.001254
936.8040	0.000812
937.5269	0.002351
938.2498	0.001465
938.9728	0.000432
939.6959	0.000095
940.4190	0.001233
941.1422	0.002857
941.8655	0.001423
942.5889	0.001824
943.3123	-0.000306
944.0357	0.001170
944.7593	0.000432
945.4829	0.001760
946.2066	0.000748
946.9303	0.003025
947.6541	0.000495
948.3780	0.001971
949.1019	0.000390
949.8259	0.002519
950.5500	-0.000875
951.2741	0.000264
951.9983	0.002519
952.7226	0.002013
953.4469	0.001149
954.1713	0.000538
954.8958	0.000580
955.6203	0.001592
956.3449	0.001318
957.0696	0.001781
957.7943	-0.000770
958.5191	0.001254
959.2439	0.000095
959.9688	0.000896
960.6938	-0.000179
961.4189	0.001001
962.1440	0.000390
962.8692	-0.000074
963.5944	0.002013
964.3197	0.001001
965.0451	0.000896
965.7705	0.000179
966.4960	0.000095
967.2216	0.002266
967.9472	-0.000411
968.6729	0.001528
969.3987	0.000116
970.1245	0.002266
970.8504	0.000053
971.5763	0.001339
972.3023	0.001191
973.0284	0.001360
973.7545	0.001339
974.4807	0.001065
975.2070	0.000854
975.9333	0.001233
976.6597	-0.000264
977.3862	-0.000833
978.1127	-0.000264
978.8393	0.001339
979.5659	-0.000538
980.2926	0.002013
981.0194	0.001381
981.7462	-0.000538
982.4731	0.001086
983.2001	0.001297
983.9271	0.000348
984.6542	0.001381
985.3814	-0.000453
986.1086	0.000580
986.8358	0.000011
987.5632	-0.000411
988.2906	0.000896
989.0180	0.001423
989.7456	0.000242
990.4732	0.000453
991.2008	0.001128
991.9285	0.000179
992.6563	0.000959
993.3841	0.001423
994.1120	0.001402
994.8400	-0.000242
995.5680	0.000812
996.2961	0.000495
997.0242	-0.000938
997.7524	0.000264
998.4807	0.000242
999.2090	0.002034
999.9374	0.000664
1000.67	0.001044
1001.39	0.000538
1002.12	0.001297
1002.85	0.002077
1003.58	0.001044
1004.31	0.001360
1005.04	-0.000053
1005.77	0.000327
1006.5	-0.000559
1007.22	0.001360
1007.95	0.000896
1008.68	0.001297
1009.41	0.000748
1010.14	0.000685
1010.87	0.000896
1011.6	0.000538
1012.33	0.000495
1013.06	-0.000179
1013.79	0.000453
1014.52	-0.000664
1015.25	0.001507
1015.98	0.001929
1016.71	-0.000517
1017.44	0.000264
1018.17	0.001086
1018.9	0.001465
1019.63	0.000875
1020.36	-0.000011
1021.09	0.000242
1021.82	0.000580
1022.55	0.001360
1023.03	-0.000474