File: MRG-061-G-2_after_aminolysis_spectrum_2025-06-20_14-49-03.txt
# Wavelength (nm)	Intensity (a.u.)
197.7802	-0.000040
198.3922	-0.000420
199.0044	0.002090
199.6168	0.001541
200.2292	-0.000188
200.8418	0.000698
201.4546	-0.000315
202.0674	0.000170
202.6805	0.000339
203.2936	-0.000441
203.9069	0.001584
204.5203	-0.000736
205.1338	0.001457
205.7475	-0.000230
206.3614	-0.000905
206.9753	0.000065
207.5894	-0.001032
208.2036	-0.000504
208.8180	0.000065
209.4325	0.000360
210.0471	-0.000399
210.6618	-0.000062
211.2767	0.000276
211.8918	0.000635
212.5069	-0.000062
213.1222	-0.000694
213.7376	0.000297
214.3532	-0.000188
214.9689	0.000740
215.5847	0.000445
216.2007	0.000023
216.8168	0.000065
217.4330	-0.000209
218.0494	0.001668
218.6659	-0.000188
219.2825	-0.000357
219.8992	0.000128
220.5161	0.000213
221.1332	0.000803
221.7503	-0.000294
222.3676	0.000128
222.9850	0.000909
223.6026	0.000044
224.2203	0.001499
224.8381	0.000192
225.4561	0.000445
226.0742	0.000360
226.6924	-0.000736
227.3107	0.000424
227.9292	-0.001285
228.5478	0.001099
229.1666	-0.000062
229.7855	-0.000736
230.4045	-0.000146
231.0236	0.001099
231.6429	-0.000968
232.2623	0.001731
232.8818	0.000487
233.5015	0.000255
234.1213	-0.001538
234.7413	0.000192
235.3613	-0.000188
235.9815	-0.000800
236.6018	0.000402
237.2223	0.001077
237.8429	-0.001390
238.4636	0.001436
239.0845	0.000571
239.7055	0.001056
240.3266	-0.000125
240.9478	0.001204
241.5692	-0.000167
242.1907	-0.000462
242.8124	-0.000062
243.4341	0.002723
244.0560	0.001373
244.6781	0.000255
245.3002	0.000845
245.9225	0.001373
246.5449	-0.000779
247.1675	0.000065
247.7902	-0.000673
248.4130	0.001246
249.0359	-0.000378
249.6590	0.000276
250.2822	-0.000336
250.9056	0.001014
251.5290	0.000571
252.1526	0.001436
252.7763	-0.001053
253.4002	0.000402
254.0242	0.000276
254.6483	0.000234
255.2725	0.000635
255.8969	-0.000040
256.5214	-0.000547
257.1460	0.000761
257.7708	-0.001243
258.3957	0.000318
259.0207	0.000951
259.6459	0.000782
260.2711	0.000192
260.8965	-0.000652
261.5221	0.000318
262.1477	0.000824
262.7735	-0.000652
263.3995	0.000213
264.0255	-0.000399
264.6517	0.001204
265.2780	0.001752
265.9044	-0.000188
266.5310	0.000402
267.1577	-0.000062
267.7845	-0.000779
268.4114	-0.000483
269.0385	-0.000062
269.6657	0.001120
270.2931	0.000213
270.9205	0.000761
271.5481	0.001647
272.1758	0.000255
272.8037	0.000698
273.4316	0.000318
274.0597	0.000740
274.6880	-0.000188
275.3163	-0.000188
275.9448	0.000234
276.5734	0.000445
277.2022	-0.000167
277.8310	0.000698
278.4600	-0.000294
279.0891	-0.000040
279.7184	-0.000209
280.3477	-0.000209
280.9772	0.002005
281.6069	-0.000884
282.2366	0.001077
282.8665	0.000592
283.4965	0.000677
284.1266	0.000550
284.7569	-0.001074
285.3873	0.000002
286.0178	0.000993
286.6484	-0.000167
287.2792	0.001478
287.9101	-0.000040
288.5411	0.000951
289.1723	0.000635
289.8035	0.000339
290.4349	-0.000631
291.0665	0.000023
291.6981	0.000930
292.3299	-0.000336
292.9618	0.000276
293.5938	0.000909
294.2260	0.000740
294.8582	0.000571
295.4906	0.000044
296.1232	-0.000083
296.7558	-0.000526
297.3886	0.000592
298.0215	-0.000019
298.6545	0.000656
299.2877	0.000002
299.9210	0.000149
300.5544	0.000445
301.1879	-0.000251
301.8215	-0.000631
302.4553	-0.000251
303.0892	0.001710
303.7233	-0.000188
304.3574	0.000023
304.9917	0.000466
305.6261	-0.000167
306.2606	0.000002
306.8953	-0.001411
307.5301	-0.000863
308.1650	0.000297
308.8000	0.001605
309.4351	0.000613
310.0704	0.001837
310.7058	-0.001390
311.3413	0.000930
311.9770	-0.000736
312.6127	0.000086
313.2486	-0.000019
313.8846	0.000698
314.5208	-0.000062
315.1570	-0.001032
315.7934	0.000613
316.4299	-0.000905
317.0666	0.000951
317.7033	0.001499
318.3402	-0.000040
318.9772	-0.000230
319.6143	-0.000125
320.2516	0.000613
320.8890	0.001457
321.5265	0.000845
322.1641	-0.000188
322.8018	0.000023
323.4397	-0.000758
324.0777	0.000023
324.7158	0.000592
325.3540	0.000656
325.9924	0.000487
326.6308	0.000951
327.2694	-0.000758
327.9082	0.000360
328.5470	-0.000673
329.1860	0.001331
329.8251	-0.000040
330.4643	0.000339
331.1036	0.000761
331.7431	0.000255
332.3826	0.001478
333.0223	0.000719
333.6622	0.001436
334.3021	0.000360
334.9422	-0.000357
335.5823	0.000360
336.2227	0.000571
336.8631	-0.000146
337.5036	-0.000230
338.1443	0.000656
338.7851	-0.000378
339.4260	0.000508
340.0670	-0.000167
340.7082	-0.000209
341.3495	-0.000715
341.9909	0.000909
342.6324	0.000592
343.2740	0.000867
343.9158	-0.001011
344.5577	-0.000631
345.1997	-0.000083
345.8418	0.000845
346.4840	0.000698
347.1264	0.000023
347.7689	-0.001074
348.4115	0.000656
349.0542	0.000824
349.6971	0.000993
350.3400	-0.001116
350.9831	0.000107
351.6263	-0.000779
352.2696	0.001225
352.9131	-0.000294
353.5566	0.000339
354.2003	-0.000040
354.8441	0.000571
355.4881	0.000529
356.1321	0.000466
356.7763	0.000698
357.4206	-0.000315
358.0650	0.000550
358.7095	-0.000209
359.3541	-0.000378
359.9989	-0.000062
360.6438	-0.000779
361.2888	0.000023
361.9339	0.000508
362.5791	-0.000357
363.2245	0.000972
363.8699	-0.000104
364.5155	0.001035
365.1612	0.000339
365.8071	0.000845
366.4530	0.000993
367.0991	-0.001770
367.7453	0.000803
368.3916	-0.001285
369.0380	0.002891
369.6845	-0.000990
370.3312	0.000550
370.9780	-0.000209
371.6249	0.001225
372.2719	-0.000652
372.9190	0.000381
373.5663	-0.000694
374.2136	0.000993
374.8611	0.001394
375.5087	0.001731
376.1564	-0.000441
376.8043	-0.000947
377.4522	-0.000441
378.1003	0.000360
378.7485	-0.001285
379.3968	-0.000104
380.0452	0.000086
380.6938	0.001056
381.3424	-0.000083
381.9912	0.000951
382.6401	0.000571
383.2891	0.000234
383.9382	-0.000631
384.5875	0.001162
385.2368	-0.000968
385.8863	0.001879
386.5359	0.000930
387.1856	0.000149
387.8355	-0.000083
388.4854	0.000972
389.1355	0.000867
389.7856	-0.000272
390.4359	0.000023
391.0863	-0.000399
391.7369	0.001773
392.3875	0.000508
393.0383	0.000529
393.6891	0.001162
394.3401	-0.000104
394.9912	0.000656
395.6425	0.000613
396.2938	-0.000230
396.9453	-0.001285
397.5968	0.001035
398.2485	0.000023
398.9003	0.000297
399.5522	0.000592
400.2043	0.001795
400.8564	0.000592
401.5087	-0.000357
402.1610	0.000381
402.8135	0.001056
403.4661	0.001077
404.1189	0.001204
404.7717	0.001035
405.4246	0.001035
406.0777	0.000044
406.7309	0.000360
407.3842	0.000698
408.0376	0.000318
408.6911	-0.000062
409.3448	0.000761
409.9985	0.001647
410.6524	0.001710
411.3064	-0.000315
411.9605	0.001689
412.6147	0.001942
413.2690	0.002237
413.9234	0.001710
414.5780	0.002343
415.2326	0.001773
415.8874	0.003630
416.5423	0.000993
417.1973	0.001373
417.8524	0.002617
418.5077	0.001816
419.1630	0.003123
419.8185	0.002912
420.4741	0.002870
421.1298	0.005022
421.7856	0.005380
422.4415	0.005127
423.0975	0.004473
423.7536	0.005612
424.4099	0.004199
425.0663	0.004304
425.7228	0.005380
426.3793	0.004115
427.0361	0.005127
427.6929	0.008523
428.3498	0.006287
429.0068	0.006371
429.6640	0.005950
430.3213	0.009493
430.9787	0.007236
431.6362	0.009430
432.2938	0.008502
432.9515	0.008396
433.6093	0.009514
434.2673	0.011708
434.9253	0.011096
435.5835	0.010421
436.2418	0.011328
436.9001	0.012720
437.5586	0.010273
438.2173	0.012151
438.8760	0.012340
439.5348	0.012931
440.1938	0.013901
440.8528	0.013838
441.5120	0.016601
442.1713	0.019638
442.8307	0.016601
443.4902	0.020186
444.1498	0.020208
444.8095	0.019111
445.4694	0.020524
446.1293	0.019069
446.7894	0.019828
447.4496	0.021220
448.1098	0.020904
448.7702	0.021304
449.4307	0.023013
450.0914	0.022654
450.7521	0.022633
451.4129	0.021494
452.0739	0.022148
452.7349	0.022296
453.3961	0.021347
454.0574	0.021895
454.7188	0.023350
455.3803	0.023561
456.0419	0.023793
456.7036	0.024447
457.3654	0.023456
458.0274	0.027379
458.6894	0.027463
459.3516	0.026894
460.0138	0.027105
460.6762	0.025396
461.3387	0.029319
462.0013	0.027864
462.6640	0.023730
463.3268	0.024679
463.9897	0.027653
464.6528	0.030057
465.3159	0.030015
465.9792	0.032694
466.6425	0.030289
467.3060	0.026366
467.9696	0.027041
468.6333	0.028096
469.2970	0.024679
469.9610	0.024067
470.6250	0.023920
471.2891	0.023540
471.9533	0.023709
472.6177	0.023055
473.2821	0.027484
473.9467	0.026598
474.6113	0.025523
475.2761	0.028222
475.9410	0.028096
476.6060	0.027442
477.2711	0.026493
477.9363	0.027147
478.6016	0.031829
479.2670	0.027969
479.9325	0.029298
480.5982	0.031745
481.2639	0.028940
481.9298	0.030985
482.5957	0.030943
483.2618	0.029256
483.9280	0.033601
484.5943	0.031892
485.2606	0.036596
485.9271	0.081922
486.5937	0.097382
487.2605	0.063656
487.9273	0.038621
488.5942	0.032947
489.2612	0.032356
489.9284	0.031133
490.5956	0.030289
491.2630	0.032588
491.9304	0.030732
492.5980	0.032420
493.2657	0.030078
493.9334	0.031787
494.6013	0.032230
495.2693	0.030310
495.9374	0.029530
496.6056	0.033601
497.2739	0.033601
497.9423	0.031091
498.6109	0.029678
499.2795	0.032546
499.9482	0.032167
500.6171	0.031892
501.2860	0.032061
501.9551	0.033495
502.6242	0.035984
503.2935	0.032715
503.9628	0.034571
504.6323	0.028665
505.3019	0.031365
505.9716	0.033306
506.6414	0.032736
507.3113	0.030479
507.9813	0.029973
508.6514	0.031850
509.3216	0.030690
509.9919	0.029404
510.6623	0.028518
511.3329	0.028518
512.0035	0.028307
512.6742	0.027569
513.3451	0.028602
514.0160	0.028581
514.6871	0.027062
515.3582	0.026261
516.0295	0.026219
516.7008	0.025734
517.3723	0.027231
518.0439	0.023730
518.7155	0.025227
519.3873	0.024489
520.0592	0.025544
520.7312	0.024046
521.4033	0.023182
522.0755	0.024869
522.7478	0.020144
523.4202	0.023055
524.0927	0.022823
524.7653	0.023941
525.4380	0.023287
526.1108	0.023013
526.7837	0.025291
527.4568	0.023941
528.1299	0.023793
528.8031	0.024763
529.4765	0.025248
530.1499	0.024531
530.8234	0.024911
531.4971	0.023118
532.1708	0.022844
532.8447	0.024637
533.5186	0.026345
534.1927	0.026134
534.8668	0.028075
535.5411	0.028117
536.2155	0.026409
536.8899	0.025164
537.5645	0.024489
538.2392	0.026177
538.9139	0.029614
539.5888	0.030817
540.2638	0.028054
540.9389	0.028159
541.6140	0.028244
542.2893	0.031028
542.9647	0.030732
543.6402	0.030880
544.3158	0.031133
544.9915	0.032124
545.6673	0.031492
546.3432	0.031133
547.0192	0.030057
547.6953	0.032631
548.3715	0.034234
549.0478	0.035647
549.7242	0.030880
550.4007	0.030753
551.0773	0.030985
551.7540	0.026556
552.4308	0.033411
553.1077	0.035056
553.7847	0.034234
554.4618	0.031892
555.1390	0.030690
555.8163	0.033284
556.4937	0.036511
557.1712	0.034023
557.8488	0.031892
558.5266	0.034381
559.2044	0.029889
559.8823	0.030205
560.5603	0.035056
561.2384	0.039612
561.9166	0.035689
562.5949	0.035562
563.2733	0.035541
563.9519	0.037819
564.6305	0.039148
565.3092	0.039865
565.9880	0.039106
566.6669	0.039823
567.3459	0.044800
568.0250	0.052415
568.7043	0.056717
569.3836	0.066504
570.0630	0.084558
570.7425	0.095568
571.4221	0.106177
572.1018	0.115943
572.7816	0.113517
573.4615	0.103857
574.1415	0.131255
574.8216	0.146821
575.5018	0.148487
576.1821	0.129948
576.8626	0.138152
577.5431	0.152642
578.2237	0.206278
578.9044	0.167406
579.5851	0.150006
580.2660	0.162597
580.9470	0.153570
581.6281	0.230260
582.3093	0.248694
582.9906	0.199993
583.6720	0.155975
584.3535	0.145830
585.0351	0.156987
585.7167	0.178015
586.3985	0.164875
587.0804	0.148677
587.7624	0.170781
588.4445	0.152178
589.1266	0.142096
589.8089	0.118305
590.4913	0.111197
591.1737	0.099344
591.8563	0.095610
592.5389	0.097298
593.2217	0.147116
593.9046	0.144037
594.5875	0.122312
595.2705	0.140072
595.9537	0.131108
596.6369	0.111429
597.3203	0.107253
598.0037	0.106662
598.6872	0.098036
599.3709	0.134208
600.0546	0.127248
600.7384	0.129631
601.4223	0.131804
602.1064	0.121490
602.7905	0.117525
603.4747	0.125750
604.1590	0.127817
604.8434	0.116723
605.5279	0.111218
606.2125	0.127206
606.8972	0.110670
607.5819	0.114888
608.2668	0.109362
608.9518	0.100841
609.6369	0.094218
610.3220	0.105819
611.0073	0.100040
611.6927	0.097698
612.3781	0.093628
613.0637	0.088355
613.7493	0.088165
614.4351	0.092615
615.1209	0.088313
615.8068	0.093016
616.4929	0.085233
617.1790	0.076438
617.8652	0.076670
618.5515	0.075067
619.2379	0.064943
619.9244	0.063403
620.6110	0.067242
621.2977	0.055156
621.9845	0.053933
622.6714	0.060809
623.3584	0.061758
624.0454	0.063888
624.7326	0.061463
625.4199	0.059628
626.1072	0.054439
626.7947	0.049525
627.4822	0.050200
628.1698	0.048112
628.8576	0.041131
629.5454	0.042227
630.2333	0.042670
630.9213	0.041363
631.6094	0.039570
632.2976	0.036343
632.9859	0.034128
633.6743	0.030036
634.3628	0.031745
635.0514	0.029382
635.7400	0.029657
636.4288	0.032757
637.1177	0.031217
637.8066	0.029382
638.4957	0.031175
639.1848	0.028792
639.8740	0.029016
640.5633	0.028258
641.2528	0.025732
641.9423	0.024866
642.6319	0.021874
643.3216	0.021425
644.0113	0.020978
644.7012	0.020162
645.3912	0.018597
646.0812	0.018707
646.7714	0.018209
647.4616	0.017055
648.1520	0.018870
648.8424	0.022736
649.5329	0.024870
650.2236	0.021909
650.9143	0.020786
651.6051	0.019114
652.2960	0.023659
652.9870	0.023019
653.6780	0.023932
654.3692	0.023658
655.0605	0.027200
655.7518	0.334981
656.4433	0.977423
657.1348	0.774288
657.8264	0.415627
658.5181	0.303485
659.2099	0.244458
659.9018	0.081530
660.5938	0.024774
661.2859	0.018159
661.9781	0.016883
662.6704	0.017355
663.3627	0.014648
664.0552	0.016340
664.7477	0.015586
665.4403	0.017401
666.1330	0.015864
666.8259	0.015696
667.5188	0.015700
668.2117	0.017346
668.9048	0.014133
669.5980	0.014386
670.2913	0.014597
670.9846	0.015504
671.6781	0.018120
672.3716	0.023688
673.0652	0.023941
673.7589	0.023667
674.4527	0.022000
675.1466	0.020271
675.8406	0.019849
676.5347	0.020292
677.2288	0.017529
677.9231	0.021684
678.6174	0.019722
679.3119	0.022654
680.0064	0.028180
680.7010	0.024595
681.3957	0.024489
682.0905	0.025291
682.7854	0.022570
683.4803	0.021389
684.1754	0.024152
684.8705	0.026746
685.5658	0.031302
686.2611	0.035520
686.9565	0.029846
687.6520	0.031133
688.3476	0.028159
689.0433	0.026830
689.7390	0.025586
690.4349	0.025396
691.1308	0.023814
691.8269	0.026978
692.5230	0.027547
693.2192	0.027252
693.9155	0.029593
694.6119	0.024974
695.3083	0.025607
696.0049	0.022717
696.7016	0.024025
697.3983	0.028982
698.0951	0.026219
698.7920	0.026999
699.4890	0.026936
700.1861	0.024658
700.8833	0.023266
701.5806	0.019933
702.2779	0.020967
702.9753	0.022064
703.6729	0.022739
704.3705	0.020018
705.0682	0.017951
705.7660	0.016622
706.4638	0.020714
707.1618	0.025291
707.8599	0.028391
708.5580	0.028518
709.2562	0.025227
709.9545	0.025101
710.6529	0.024194
711.3514	0.021368
712.0500	0.022485
712.7486	0.019680
713.4474	0.023055
714.1462	0.024278
714.8451	0.025502
715.5441	0.025291
716.2432	0.022043
716.9424	0.020735
717.6416	0.020861
718.3410	0.021072
719.0404	0.019090
719.7399	0.021325
720.4395	0.019533
721.1392	0.019680
721.8390	0.023540
722.5388	0.023371
723.2388	0.020018
723.9388	0.020292
724.6389	0.020946
725.3391	0.024384
726.0394	0.024342
726.7398	0.026514
727.4403	0.024320
728.1408	0.023392
728.8414	0.027526
729.5421	0.027801
730.2429	0.026430
730.9438	0.028412
731.6448	0.030648
732.3458	0.030289
733.0470	0.029825
733.7482	0.031639
734.4495	0.037545
735.1509	0.034381
735.8524	0.036153
736.5539	0.034824
737.2556	0.035942
737.9573	0.033938
738.6591	0.030859
739.3610	0.033495
740.0630	0.032567
740.7651	0.031681
741.4672	0.025691
742.1695	0.025396
742.8718	0.025206
743.5742	0.025565
744.2767	0.022739
744.9792	0.020735
745.6819	0.022275
746.3846	0.020397
747.0874	0.021072
747.7903	0.025164
748.4933	0.023941
749.1964	0.021979
749.8995	0.025185
750.6028	0.029298
751.3061	0.029382
752.0095	0.030690
752.7130	0.029910
753.4166	0.025016
754.1202	0.032209
754.8239	0.027758
755.5278	0.032019
756.2317	0.032841
756.9356	0.038832
757.6397	0.042438
758.3438	0.044210
759.0481	0.039928
759.7524	0.043219
760.4568	0.044779
761.1613	0.046846
761.8658	0.040561
762.5705	0.036343
763.2752	0.035541
763.9800	0.037207
764.6849	0.040245
765.3898	0.042860
766.0949	0.038578
766.8000	0.032230
767.5052	0.028665
768.2105	0.030100
768.9159	0.034866
769.6214	0.035520
770.3269	0.032673
771.0325	0.034360
771.7382	0.035035
772.4440	0.030711
773.1499	0.031745
773.8558	0.028982
774.5618	0.027569
775.2679	0.020714
775.9741	0.020608
776.6804	0.019258
777.3868	0.019132
778.0932	0.017529
778.7997	0.020819
779.5063	0.023540
780.2130	0.022359
780.9197	0.022338
781.6265	0.026092
782.3335	0.024637
783.0405	0.024700
783.7475	0.026493
784.4547	0.023941
785.1619	0.020081
785.8692	0.023076
786.5766	0.021874
787.2841	0.020292
787.9917	0.022549
788.6993	0.022021
789.4070	0.023983
790.1148	0.020418
790.8227	0.019490
791.5306	0.019111
792.2387	0.018900
792.9468	0.016221
793.6550	0.016179
794.3632	0.021726
795.0716	0.024110
795.7800	0.024088
796.4885	0.019132
797.1971	0.017107
797.9058	0.018120
798.6145	0.018014
799.3233	0.016791
800.0322	0.017592
800.7412	0.015884
801.4503	0.015188
802.1594	0.011687
802.8686	0.013922
803.5779	0.012804
804.2873	0.014049
804.9968	0.013290
805.7063	0.013058
806.4159	0.015905
807.1256	0.019406
807.8354	0.017592
808.5452	0.016749
809.2551	0.016770
809.9651	0.016791
810.6752	0.015378
811.3853	0.013479
812.0956	0.011876
812.8059	0.011075
813.5163	0.011602
814.2267	0.014787
814.9373	0.013163
815.6479	0.011391
816.3586	0.010653
817.0694	0.011265
817.7802	0.011623
818.4912	0.010189
819.2022	0.009598
819.9133	0.008270
820.6244	0.011096
821.3357	0.012509
822.0470	0.011075
822.7584	0.009134
823.4698	0.008017
824.1814	0.007721
824.8930	0.010020
825.6047	0.009598
826.3165	0.009113
827.0283	0.012108
827.7402	0.009514
828.4522	0.008396
829.1643	0.010210
829.8765	0.009852
830.5887	0.010653
831.3010	0.006414
832.0134	0.004979
832.7259	0.005000
833.4384	0.008333
834.1510	0.007785
834.8637	0.007932
835.5765	0.006435
836.2893	0.007447
837.0022	0.005254
837.7152	0.005802
838.4283	0.003904
839.1414	0.005127
839.8546	0.005465
840.5679	0.006899
841.2813	0.006013
841.9947	0.003503
842.7082	0.005465
843.4218	0.004916
844.1355	0.003988
844.8492	0.003461
845.5631	0.005739
846.2770	0.004115
846.9909	0.002912
847.7050	0.004916
848.4191	0.004747
849.1333	0.002955
849.8475	0.003334
850.5619	0.003946
851.2763	0.003819
851.9908	0.004579
852.7053	0.006287
853.4200	0.008692
854.1347	0.011033
854.8495	0.011602
855.5643	0.009873
856.2792	0.010400
856.9942	0.009936
857.7093	0.007236
858.4245	0.005781
859.1397	0.007405
859.8550	0.007363
860.5704	0.006266
861.2858	0.004705
862.0013	0.005338
862.7169	0.004790
863.4326	0.003946
864.1483	0.003144
864.8642	0.006603
865.5800	0.003166
866.2960	0.002491
867.0120	0.003672
867.7281	0.004937
868.4443	0.003292
869.1606	0.004304
869.8769	0.004389
870.5933	0.004494
871.3097	0.003777
872.0263	0.004747
872.7429	0.003419
873.4596	0.001605
874.1763	0.004600
874.8932	0.004431
875.6101	0.004958
876.3270	0.001773
877.0441	0.004642
877.7612	0.004853
878.4784	0.006477
879.1957	0.004283
879.9130	0.005190
880.6304	0.006308
881.3479	0.007131
882.0654	0.004452
882.7831	0.005106
883.5007	0.004811
884.2185	0.003693
884.9363	0.003735
885.6542	0.003798
886.3722	0.004979
887.0903	0.005443
887.8084	0.002659
888.5266	0.004579
889.2448	0.004642
889.9632	0.003482
890.6816	0.002111
891.4001	0.003102
892.1186	0.004536
892.8372	0.004347
893.5559	0.003018
894.2747	0.004473
894.9935	0.003587
895.7124	0.004094
896.4314	0.003355
897.1504	0.003630
897.8695	0.003440
898.5887	0.003503
899.3079	0.002849
900.0272	0.003524
900.7466	0.002237
901.4661	0.004368
902.1856	0.003840
902.9052	0.003461
903.6249	0.003735
904.3446	0.002807
905.0644	0.003608
905.7843	0.005000
906.5043	0.004684
907.2243	0.004431
907.9444	0.003123
908.6645	0.002533
909.3847	0.003334
910.1050	0.002976
910.8254	0.002385
911.5458	0.003355
912.2663	0.002976
912.9869	0.002870
913.7075	0.002448
914.4283	0.003587
915.1490	0.001837
915.8699	0.002976
916.5908	0.000318
917.3118	0.003440
918.0328	0.003419
918.7539	0.003967
919.4751	0.004157
920.1964	0.003524
920.9177	0.003060
921.6391	0.003714
922.3606	0.001056
923.0821	0.002828
923.8037	0.001837
924.5254	0.001689
925.2471	0.002280
925.9689	0.002491
926.6908	0.001436
927.4127	0.001647
928.1347	0.002701
928.8568	0.000888
929.5789	0.001267
930.3011	0.001288
931.0234	0.000487
931.7457	0.001647
932.4681	0.001541
933.1906	0.001162
933.9131	0.001394
934.6358	0.000930
935.3584	0.000740
936.0812	0.000993
936.8040	0.001541
937.5269	0.001710
938.2498	0.001900
938.9728	0.000930
939.6959	0.002195
940.4190	0.000128
941.1422	0.001162
941.8655	0.000149
942.5889	0.002090
943.3123	0.000065
944.0357	0.001900
944.7593	0.001225
945.4829	0.001520
946.2066	0.001710
946.9303	0.000318
947.6541	0.001710
948.3780	0.000951
949.1019	0.000761
949.8259	0.001331
950.5500	0.000065
951.2741	0.000909
951.9983	0.000466
952.7226	0.000360
953.4469	0.001352
954.1713	0.001035
954.8958	0.000951
955.6203	0.001267
956.3449	0.000909
957.0696	0.001246
957.7943	0.001963
958.5191	0.001795
959.2439	-0.000062
959.9688	0.002048
960.6938	0.001541
961.4189	0.000592
962.1440	-0.000062
962.8692	-0.000294
963.5944	-0.000968
964.3197	0.000192
965.0451	-0.000315
965.7705	0.000023
966.4960	-0.000146
967.2216	0.000149
967.9472	0.000023
968.6729	-0.000631
969.3987	-0.000209
970.1245	0.000845
970.8504	-0.000357
971.5763	0.000867
972.3023	0.000487
973.0284	0.000192
973.7545	-0.000188
974.4807	0.000402
975.2070	0.001309
975.9333	0.000360
976.6597	-0.000104
977.3862	0.001246
978.1127	0.001183
978.8393	0.001035
979.5659	0.000149
980.2926	0.000466
981.0194	-0.000378
981.7462	-0.001411
982.4731	0.000255
983.2001	0.001415
983.9271	0.001246
984.6542	0.000234
985.3814	-0.000694
986.1086	-0.000019
986.8358	0.001373
987.5632	0.000086
988.2906	0.000550
989.0180	0.000002
989.7456	0.000065
990.4732	-0.000104
991.2008	-0.001812
991.9285	0.000698
992.6563	-0.001222
993.3841	0.000888
994.1120	0.000192
994.8400	0.001984
995.5680	0.000002
996.2961	0.000761
997.0242	-0.000209
997.7524	0.000424
998.4807	-0.000842
999.2090	0.000424
999.9374	-0.000336
1000.67	-0.000568
1001.39	-0.000441
1002.12	0.000044
1002.85	-0.000040
1003.58	0.001120
1004.31	0.000761
1005.04	-0.000146
1005.77	0.000656
1006.5	0.000740
1007.22	0.000909
1007.95	0.000192
1008.68	0.001499
1009.41	-0.000589
1010.14	0.000803
1010.87	0.000170
1011.6	-0.001053
1012.33	0.000909
1013.06	0.001035
1013.79	0.001014
1014.52	0.000993
1015.25	0.000635
1015.98	-0.000547
1016.71	0.000170
1017.44	0.002048
1018.17	0.000613
1018.9	-0.000821
1019.63	-0.000821
1020.36	-0.000779
1021.09	0.000508
1021.82	0.000213
1022.55	-0.000336
1023.03	-0.000019