File: spectrum_2025-06-19_13-05-47.txt
# Wavelength (nm)	Intensity (a.u.)
197.7802	-0.000697
198.3922	0.000190
199.0044	-0.000190
199.6168	0.000929
200.2292	0.000443
200.8418	0.000591
201.4546	-0.000296
202.0674	0.000190
202.6805	0.000232
203.2936	-0.000465
203.9069	-0.000296
204.5203	0.000929
205.1338	-0.000992
205.7475	-0.001922
206.3614	-0.000084
206.9753	-0.000591
207.5894	0.000633
208.2036	0.000169
208.8180	-0.000253
209.4325	0.001014
210.0471	0.001943
210.6618	-0.000612
211.2767	0.001035
211.8918	0.000275
212.5069	0.000443
213.1222	0.000000
213.7376	0.001077
214.3532	0.000887
214.9689	-0.000317
215.5847	-0.001922
216.2007	0.000950
216.8168	0.000401
217.4330	0.000718
218.0494	-0.000338
218.6659	0.000866
219.2825	-0.000486
219.8992	0.000929
220.5161	0.000866
221.1332	0.001563
221.7503	0.000401
222.3676	0.002091
222.9850	-0.001732
223.6026	0.000676
224.2203	0.000824
224.8381	-0.000486
225.4561	0.000845
226.0742	0.000549
226.6924	0.000824
227.3107	0.000633
227.9292	-0.000253
228.5478	0.000655
229.1666	-0.001478
229.7855	0.000063
230.4045	0.001161
231.0236	0.000507
231.6429	-0.001183
232.2623	-0.001351
232.8818	0.000021
233.5015	0.000190
234.1213	0.000000
234.7413	-0.000866
235.3613	0.000486
235.9815	0.000253
236.6018	0.000422
237.2223	0.000422
237.8429	0.000190
238.4636	0.000422
239.0845	-0.000612
239.7055	0.000781
240.3266	0.000781
240.9478	0.001014
241.5692	0.000106
242.1907	0.000190
242.8124	-0.001014
243.4341	0.000169
244.0560	0.000232
244.6781	-0.000549
245.3002	0.000148
245.9225	-0.000021
246.5449	0.000971
247.1675	0.000570
247.7902	-0.000633
248.4130	0.000528
249.0359	-0.001225
249.6590	-0.000697
250.2822	0.001542
250.9056	0.000106
251.5290	-0.000802
252.1526	0.001288
252.7763	-0.001014
253.4002	-0.000084
254.0242	-0.000887
254.6483	0.001436
255.2725	0.000887
255.8969	0.000211
256.5214	-0.000992
257.1460	0.000781
257.7708	0.001330
258.3957	0.001246
259.0207	-0.000042
259.6459	0.000697
260.2711	-0.000106
260.8965	0.000866
261.5221	-0.000570
262.1477	-0.000148
262.7735	0.000359
263.3995	0.000169
264.0255	-0.000760
264.6517	0.000992
265.2780	0.000929
265.9044	-0.000253
266.5310	-0.000084
267.1577	0.000655
267.7845	0.000211
268.4114	0.002027
269.0385	-0.000275
269.6657	0.001035
270.2931	0.000380
270.9205	0.000781
271.5481	0.000296
272.1758	0.000190
272.8037	-0.000781
273.4316	0.000190
274.0597	0.000697
274.6880	0.000359
275.3163	0.000106
275.9448	-0.000275
276.5734	0.001204
277.2022	-0.000063
277.8310	0.001098
278.4600	0.000676
279.0891	-0.000929
279.7184	0.001035
280.3477	0.000739
280.9772	0.000253
281.6069	0.000063
282.2366	0.000739
282.8665	0.000971
283.4965	-0.000401
284.1266	-0.000148
284.7569	0.001795
285.3873	0.001183
286.0178	-0.000275
286.6484	-0.001246
287.2792	0.000465
287.9101	0.000000
288.5411	-0.000401
289.1723	-0.000380
289.8035	-0.000021
290.4349	0.001563
291.0665	0.001098
291.6981	0.000697
292.3299	0.001373
292.9618	0.000021
293.5938	0.000591
294.2260	0.000824
294.8582	0.000929
295.4906	-0.001204
296.1232	-0.000084
296.7558	0.000296
297.3886	0.000971
298.0215	-0.000929
298.6545	0.001077
299.2877	-0.000021
299.9210	0.000338
300.5544	-0.000253
301.1879	0.001077
301.8215	-0.000127
302.4553	0.000190
303.0892	-0.000127
303.7233	0.001161
304.3574	-0.000380
304.9917	-0.001077
305.6261	-0.000528
306.2606	-0.000338
306.8953	-0.000338
307.5301	-0.000359
308.1650	-0.000739
308.8000	0.000824
309.4351	0.000296
310.0704	-0.000211
310.7058	-0.001098
311.3413	0.001035
311.9770	0.000169
312.6127	0.000000
313.2486	-0.000338
313.8846	0.001014
314.5208	0.000507
315.1570	-0.000084
315.7934	-0.001837
316.4299	0.000063
317.0666	0.002175
317.7033	0.001014
318.3402	0.000549
318.9772	0.001140
319.6143	-0.000127
320.2516	0.001436
320.8890	-0.000570
321.5265	0.000655
322.1641	-0.000655
322.8018	0.001077
323.4397	-0.000401
324.0777	0.000760
324.7158	-0.000507
325.3540	0.000127
325.9924	-0.001204
326.6308	0.001330
327.2694	0.000570
327.9082	0.000802
328.5470	0.000021
329.1860	0.000084
329.8251	0.000992
330.4643	0.001098
331.1036	-0.000992
331.7431	0.000676
332.3826	0.000992
333.0223	-0.000718
333.6622	-0.000127
334.3021	0.000781
334.9422	-0.000380
335.5823	-0.000253
336.2227	0.000211
336.8631	-0.000106
337.5036	0.001605
338.1443	-0.001140
338.7851	-0.000401
339.4260	-0.000486
340.0670	-0.000443
340.7082	-0.000296
341.3495	-0.001330
341.9909	0.000000
342.6324	0.001035
343.2740	0.000528
343.9158	-0.000106
344.5577	0.000845
345.1997	-0.000253
345.8418	0.000021
346.4840	-0.000317
347.1264	0.000824
347.7689	-0.000359
348.4115	0.000697
349.0542	0.000127
349.6971	-0.000401
350.3400	-0.000887
350.9831	0.000317
351.6263	0.000169
352.2696	0.000824
352.9131	0.000063
353.5566	0.000000
354.2003	0.001246
354.8441	0.000612
355.4881	0.000824
356.1321	0.000992
356.7763	-0.000380
357.4206	0.001288
358.0650	-0.000253
358.7095	0.000676
359.3541	-0.000338
359.9989	0.000971
360.6438	0.000486
361.2888	-0.000106
361.9339	-0.000422
362.5791	0.002091
363.2245	0.000317
363.8699	0.001795
364.5155	0.000338
365.1612	-0.000781
365.8071	0.001288
366.4530	0.000317
367.0991	-0.000401
367.7453	0.000802
368.3916	-0.001415
369.0380	0.000887
369.6845	-0.000549
370.3312	0.000063
370.9780	-0.000021
371.6249	0.000591
372.2719	-0.000021
372.9190	0.000084
373.5663	0.000042
374.2136	0.000887
374.8611	0.000106
375.5087	-0.000528
376.1564	0.001584
376.8043	0.000971
377.4522	-0.000486
378.1003	0.000359
378.7485	0.000528
379.3968	0.001288
380.0452	-0.000929
380.6938	0.001098
381.3424	0.000422
381.9912	0.000422
382.6401	-0.001288
383.2891	0.000422
383.9382	-0.000845
384.5875	0.000633
385.2368	0.001267
385.8863	0.003062
386.5359	0.000232
387.1856	0.000127
387.8355	0.000612
388.4854	0.001246
389.1355	0.000317
389.7856	0.000655
390.4359	0.000824
391.0863	0.000443
391.7369	0.001985
392.3875	0.001309
393.0383	0.001140
393.6891	0.000317
394.3401	0.000845
394.9912	0.002217
395.6425	0.001879
396.2938	0.002386
396.9453	0.003421
397.5968	0.003336
398.2485	0.001647
398.9003	0.003294
399.5522	0.002809
400.2043	0.003125
400.8564	0.005807
401.5087	0.005068
402.1610	0.004625
402.8135	0.005237
403.4661	0.006398
404.1189	0.006567
404.7717	0.006103
405.4246	0.005934
406.0777	0.006441
406.7309	0.006736
407.3842	0.006947
408.0376	0.007813
408.6911	0.008172
409.3448	0.007560
409.9985	0.008404
410.6524	0.007771
411.3064	0.008848
411.9605	0.008806
412.6147	0.010368
413.2690	0.010052
413.9234	0.010474
414.5780	0.008700
415.2326	0.010411
415.8874	0.012269
416.5423	0.011150
417.1973	0.011572
417.8524	0.011635
418.5077	0.013156
419.1630	0.014148
419.8185	0.012459
420.4741	0.015056
421.1298	0.015288
421.7856	0.017210
422.4415	0.016767
423.0975	0.018287
423.7536	0.016598
424.4099	0.017654
425.0663	0.015563
425.7228	0.016239
426.3793	0.016534
427.0361	0.015669
427.6929	0.017759
428.3498	0.017886
429.0068	0.017991
429.6640	0.019427
430.3213	0.020800
430.9787	0.019744
431.6362	0.019132
432.2938	0.019195
432.9515	0.017822
433.6093	0.019005
434.2673	0.021898
434.9253	0.018942
435.5835	0.019638
436.2418	0.020441
436.9001	0.020441
437.5586	0.020335
438.2173	0.019470
438.8760	0.021645
439.5348	0.020842
440.1938	0.019596
440.8528	0.019997
441.5120	0.025509
442.1713	0.023038
442.8307	0.024242
443.4902	0.024432
444.1498	0.024453
444.8095	0.023503
445.4694	0.023271
446.1293	0.022046
446.7894	0.024010
447.4496	0.022468
448.1098	0.020378
448.7702	0.021032
449.4307	0.021919
450.0914	0.019913
450.7521	0.017907
451.4129	0.019343
452.0739	0.020040
452.7349	0.019301
453.3961	0.017337
454.0574	0.018181
454.7188	0.017273
455.3803	0.017654
456.0419	0.016703
456.7036	0.014929
457.3654	0.016555
458.0274	0.016999
458.6894	0.016703
459.3516	0.016175
460.0138	0.016070
460.6762	0.014951
461.3387	0.015457
462.0013	0.013472
462.6640	0.013937
463.3268	0.013853
463.9897	0.013768
464.6528	0.014190
465.3159	0.014613
465.9792	0.014824
466.6425	0.013684
467.3060	0.012459
467.9696	0.012142
468.6333	0.010305
469.2970	0.011424
469.9610	0.010706
470.6250	0.008489
471.2891	0.008721
471.9533	0.009080
472.6177	0.008932
473.2821	0.008426
473.9467	0.007623
474.6113	0.008468
475.2761	0.009524
475.9410	0.009101
476.6060	0.008024
477.2711	0.006356
477.9363	0.006947
478.6016	0.005490
479.2670	0.005976
479.9325	0.007518
480.5982	0.007454
481.2639	0.005976
481.9298	0.007475
482.5957	0.006103
483.2618	0.006124
483.9280	0.004540
484.5943	0.006905
485.2606	0.006483
485.9271	0.020356
486.5937	0.013050
487.2605	0.009101
487.9273	0.006082
488.5942	0.005427
489.2612	0.004371
489.9284	0.004836
490.5956	0.003590
491.2630	0.005786
491.9304	0.005237
492.5980	0.005448
493.2657	0.003780
493.9334	0.005026
494.6013	0.004519
495.2693	0.003379
495.9374	0.003885
496.6056	0.004836
497.2739	0.003695
497.9423	0.003717
498.6109	0.002597
499.2795	0.003717
499.9482	0.004266
500.6171	0.002787
501.2860	0.004582
501.9551	0.004244
502.6242	0.002745
503.2935	0.003717
503.9628	0.003400
504.6323	0.003484
505.3019	0.002281
505.9716	0.004139
506.6414	0.003695
507.3113	0.001816
507.9813	0.002407
508.6514	0.002872
509.3216	0.004371
509.9919	0.003294
510.6623	0.001879
511.3329	0.003928
512.0035	0.003484
512.6742	0.004223
513.3451	0.002766
514.0160	0.003315
514.6871	0.003822
515.3582	0.003273
516.0295	0.002597
516.7008	0.003189
517.3723	0.002555
518.0439	0.003421
518.7155	0.004857
519.3873	0.002935
520.0592	0.002640
520.7312	0.003062
521.4033	0.003379
522.0755	0.003083
522.7478	0.003484
523.4202	0.003907
524.0927	0.004836
524.7653	0.003780
525.4380	0.002703
526.1108	0.003400
526.7837	0.004667
527.4568	0.004244
528.1299	0.003400
528.8031	0.004392
529.4765	0.005152
530.1499	0.005406
530.8234	0.005195
531.4971	0.006082
532.1708	0.005110
532.8447	0.004646
533.5186	0.007581
534.1927	0.008109
534.8668	0.008172
535.5411	0.006863
536.2155	0.007644
536.8899	0.007053
537.5645	0.007855
538.2392	0.008679
538.9139	0.008869
539.5888	0.009861
540.2638	0.009714
540.9389	0.011107
541.6140	0.011192
542.2893	0.011973
542.9647	0.011403
543.6402	0.014866
544.3158	0.014549
544.9915	0.015077
545.6673	0.013789
546.3432	0.015014
547.0192	0.014064
547.6953	0.016999
548.3715	0.018203
549.0478	0.018730
549.7242	0.018139
550.4007	0.019364
551.0773	0.016387
551.7540	0.016724
552.4308	0.021032
553.1077	0.020441
553.7847	0.019406
554.4618	0.022827
555.1390	0.021708
555.8163	0.025234
556.4937	0.023820
557.1712	0.023651
557.8488	0.025087
558.5266	0.024791
559.2044	0.023313
559.8823	0.023989
560.5603	0.030894
561.2384	0.035223
561.9166	0.033766
562.5949	0.030218
563.2733	0.031358
563.9519	0.033048
564.6305	0.036975
565.3092	0.037630
565.9880	0.036912
566.6669	0.039826
567.3459	0.048864
568.0250	0.052454
568.7043	0.059549
569.3836	0.069051
570.0630	0.094138
570.7425	0.096144
571.4221	0.117345
572.1018	0.131240
572.7816	0.114030
573.4615	0.128178
574.1415	0.149506
574.8216	0.163168
575.5018	0.163696
576.1821	0.148070
576.8626	0.169356
577.5431	0.185995
578.2237	0.225695
578.9044	0.192858
579.5851	0.190704
580.2660	0.201305
580.9470	0.195709
581.6281	0.299328
582.3093	0.287482
582.9906	0.227173
583.6720	0.185552
584.3535	0.185341
585.0351	0.213489
585.7167	0.228862
586.3985	0.194653
587.0804	0.202509
587.7624	0.218283
588.4445	0.196364
589.1266	0.168321
589.8089	0.156010
590.4913	0.142601
591.1737	0.124504
591.8563	0.127798
592.5389	0.148851
593.2217	0.196512
593.9046	0.185256
594.5875	0.168067
595.2705	0.191591
595.9537	0.169482
596.6369	0.140151
597.3203	0.147141
598.0037	0.138589
598.6872	0.151427
599.3709	0.177950
600.0546	0.174043
600.7384	0.176451
601.4223	0.180864
602.1064	0.163316
602.7905	0.164625
603.4747	0.183799
604.1590	0.168067
604.8434	0.154743
605.5279	0.159557
606.2125	0.171256
606.8972	0.151892
607.5819	0.155503
608.2668	0.143340
608.9518	0.138589
609.6369	0.129382
610.3220	0.145515
611.0073	0.135928
611.6927	0.136751
612.3781	0.127566
613.0637	0.123722
613.7493	0.123385
614.4351	0.124271
615.1209	0.121020
615.8068	0.126003
616.4929	0.114452
617.1790	0.108350
617.8652	0.109067
618.5515	0.100198
619.2379	0.091224
619.9244	0.090992
620.6110	0.091435
621.2977	0.074098
621.9845	0.080602
622.6714	0.084340
623.3584	0.088373
624.0454	0.087571
624.7326	0.089408
625.4199	0.080940
626.1072	0.076189
626.7947	0.071353
627.4822	0.070361
628.1698	0.063392
628.8576	0.058176
629.5454	0.062653
630.2333	0.060753
630.9213	0.055938
631.6094	0.053467
632.2976	0.051884
632.9859	0.042888
633.6743	0.044472
634.3628	0.044345
635.0514	0.041389
635.7400	0.039742
636.4288	0.046985
637.1177	0.044556
637.8066	0.038284
638.4957	0.042360
639.1848	0.042719
639.8740	0.040306
640.5633	0.037762
641.2528	0.034136
641.9423	0.028438
642.6319	0.028770
643.3216	0.030045
644.0113	0.029289
644.7012	0.027373
645.3912	0.028475
646.0812	0.027066
646.7714	0.025810
647.4616	0.024467
648.1520	0.029215
648.8424	0.034141
649.5329	0.034403
650.2236	0.030500
650.9143	0.029609
651.6051	0.028988
652.2960	0.028211
652.9870	0.031252
653.6780	0.032517
654.3692	0.034934
655.0605	0.063937
655.7518	0.937494
656.4433	1.000000
657.1348	0.856203
657.8264	0.524221
658.5181	0.405032
659.2099	0.330507
659.9018	0.103185
660.5938	0.032184
661.2859	0.023575
661.9781	0.023742
662.6704	0.023173
663.3627	0.021162
664.0552	0.021521
664.7477	0.024254
665.4403	0.024199
666.1330	0.025250
666.8259	0.022157
667.5188	0.022025
668.2117	0.020193
668.9048	0.021349
669.5980	0.020927
670.2913	0.020948
670.9846	0.022088
671.6781	0.030324
672.3716	0.034674
673.0652	0.033069
673.7589	0.030514
674.4527	0.026987
675.1466	0.025234
675.8406	0.026797
676.5347	0.024875
677.2288	0.023207
677.9231	0.027599
678.6174	0.030598
679.3119	0.033048
680.0064	0.034547
680.7010	0.034758
681.3957	0.037271
682.0905	0.033385
682.7854	0.030999
683.4803	0.030091
684.1754	0.033660
684.8705	0.037672
685.5658	0.043458
686.2611	0.043331
686.9565	0.042825
687.6520	0.041135
688.3476	0.039045
689.0433	0.036384
689.7390	0.034167
690.4349	0.034547
691.1308	0.036595
691.8269	0.036996
692.5230	0.037292
693.2192	0.040269
693.9155	0.037567
694.6119	0.034040
695.3083	0.034842
696.0049	0.030049
696.7016	0.036236
697.3983	0.038453
698.0951	0.035603
698.7920	0.037440
699.4890	0.035729
700.1861	0.030366
700.8833	0.030324
701.5806	0.027642
702.2779	0.030007
702.9753	0.029711
703.6729	0.029606
704.3705	0.029711
705.0682	0.025699
705.7660	0.025150
706.4638	0.029099
707.1618	0.036912
707.8599	0.039129
708.5580	0.036447
709.2562	0.032942
709.9545	0.033533
710.6529	0.035201
711.3514	0.032900
712.0500	0.029437
712.7486	0.030682
713.4474	0.031337
714.1462	0.033322
714.8451	0.034251
715.5441	0.034399
716.2432	0.030619
716.9424	0.027832
717.6416	0.026269
718.3410	0.028719
719.0404	0.027473
719.7399	0.031337
720.4395	0.028275
721.1392	0.030176
721.8390	0.030028
722.5388	0.026311
723.2388	0.027832
723.9388	0.028909
724.6389	0.025636
725.3391	0.032414
726.0394	0.033660
726.7398	0.031612
727.4403	0.031865
728.1408	0.033681
728.8414	0.034610
729.5421	0.036088
730.2429	0.035624
730.9438	0.041220
731.6448	0.041241
732.3458	0.039551
733.0470	0.039383
733.7482	0.045718
734.4495	0.051567
735.1509	0.048252
735.8524	0.050110
736.5539	0.046731
737.2556	0.048611
737.9573	0.044746
738.6591	0.038116
739.3610	0.045696
740.0630	0.042487
740.7651	0.040544
741.4672	0.035582
742.1695	0.035772
742.8718	0.035096
743.5742	0.031823
744.2767	0.028972
744.9792	0.030830
745.6819	0.029225
746.3846	0.027219
747.0874	0.028529
747.7903	0.030471
748.4933	0.027958
749.1964	0.032815
749.8995	0.034230
750.6028	0.039615
751.3061	0.035370
752.0095	0.040797
752.7130	0.037630
753.4166	0.038453
754.1202	0.042698
754.8239	0.038390
755.5278	0.043078
756.2317	0.045992
756.9356	0.051736
757.6397	0.060436
758.3438	0.056001
759.0481	0.054059
759.7524	0.058240
760.4568	0.064173
761.1613	0.061682
761.8658	0.053742
762.5705	0.048653
763.2752	0.051588
763.9800	0.047660
764.6849	0.057606
765.3898	0.057986
766.0949	0.050490
766.8000	0.041410
767.5052	0.038791
768.2105	0.041748
768.9159	0.049328
769.6214	0.043880
770.3269	0.045063
771.0325	0.047766
771.7382	0.045084
772.4440	0.040903
773.1499	0.040291
773.8558	0.037567
774.5618	0.033111
775.2679	0.031696
775.9741	0.027642
776.6804	0.024706
777.3868	0.024369
778.0932	0.025108
778.7997	0.027790
779.5063	0.029690
780.2130	0.027768
780.9197	0.031506
781.6265	0.036722
782.3335	0.036468
783.0405	0.033005
783.7475	0.035793
784.4547	0.031696
785.1619	0.028043
785.8692	0.029690
786.5766	0.029057
787.2841	0.026755
787.9917	0.028106
788.6993	0.030070
789.4070	0.028740
790.1148	0.027705
790.8227	0.025952
791.5306	0.024263
792.2387	0.021898
792.9468	0.022531
793.6550	0.023883
794.3632	0.030492
795.0716	0.032836
795.7800	0.029204
796.4885	0.024875
797.1971	0.022384
797.9058	0.022933
798.6145	0.022658
799.3233	0.021771
800.0322	0.020356
800.7412	0.019955
801.4503	0.019153
802.1594	0.017463
802.8686	0.017780
803.5779	0.018688
804.2873	0.018350
804.9968	0.018097
805.7063	0.018181
806.4159	0.020758
807.1256	0.022341
807.8354	0.024221
808.5452	0.021201
809.2551	0.022468
809.9651	0.018393
810.6752	0.019660
811.3853	0.018583
812.0956	0.018266
812.8059	0.014043
813.5163	0.017991
814.2267	0.018139
814.9373	0.016218
815.6479	0.015690
816.3586	0.015077
817.0694	0.016260
817.7802	0.016049
818.4912	0.013641
819.2022	0.012459
819.9133	0.012923
820.6244	0.015120
821.3357	0.015521
822.0470	0.014190
822.7584	0.013261
823.4698	0.011382
824.1814	0.011804
824.8930	0.010347
825.6047	0.016070
826.3165	0.013620
827.0283	0.012754
827.7402	0.014000
828.4522	0.012311
829.1643	0.013029
829.8765	0.010579
830.5887	0.010263
831.3010	0.009186
832.0134	0.006884
832.7259	0.009017
833.4384	0.009038
834.1510	0.010685
834.8637	0.012290
835.5765	0.011171
836.2893	0.008869
837.0022	0.007623
837.7152	0.006610
838.4283	0.006610
839.1414	0.007665
839.8546	0.007834
840.5679	0.006483
841.2813	0.007581
841.9947	0.004582
842.7082	0.007074
843.4218	0.003505
844.1355	0.005934
844.8492	0.005174
845.5631	0.004962
846.2770	0.004118
846.9909	0.006293
847.7050	0.004836
848.4191	0.005406
849.1333	0.004456
849.8475	0.004582
850.5619	0.003970
851.2763	0.004751
851.9908	0.004667
852.7053	0.008257
853.4200	0.013810
854.1347	0.015056
854.8495	0.013620
855.5643	0.010558
856.2792	0.012564
856.9942	0.011846
857.7093	0.010833
858.4245	0.010220
859.1397	0.007940
859.8550	0.008975
860.5704	0.008024
861.2858	0.006082
862.0013	0.006694
862.7169	0.006187
863.4326	0.006778
864.1483	0.008510
864.8642	0.004751
865.5800	0.006821
866.2960	0.003759
867.0120	0.006778
867.7281	0.004561
868.4443	0.005934
869.1606	0.005047
869.8769	0.003759
870.5933	0.006208
871.3097	0.006060
872.0263	0.003780
872.7429	0.003928
873.4596	0.004118
874.1763	0.004603
874.8932	0.004603
875.6101	0.005892
876.3270	0.004540
877.0441	0.005047
877.7612	0.006419
878.4784	0.007518
879.1957	0.008278
879.9130	0.007771
880.6304	0.008953
881.3479	0.006757
882.0654	0.006968
882.7831	0.005047
883.5007	0.006018
884.2185	0.006166
884.9363	0.006335
885.6542	0.007412
886.3722	0.005828
887.0903	0.004139
887.8084	0.004962
888.5266	0.003759
889.2448	0.005195
889.9632	0.004097
890.6816	0.005068
891.4001	0.004815
892.1186	0.004582
892.8372	0.005343
893.5559	0.006039
894.2747	0.005174
894.9935	0.004646
895.7124	0.004688
896.4314	0.004688
897.1504	0.003780
897.8695	0.005026
898.5887	0.005744
899.3079	0.004920
900.0272	0.001605
900.7466	0.005828
901.4661	0.003674
902.1856	0.005744
902.9052	0.006018
903.6249	0.003991
904.3446	0.004160
905.0644	0.005216
905.7843	0.005638
906.5043	0.004984
907.2243	0.004646
907.9444	0.004603
908.6645	0.002914
909.3847	0.004625
910.1050	0.003231
910.8254	0.004456
911.5458	0.003294
912.2663	0.004603
912.9869	0.003949
913.7075	0.003379
914.4283	0.001457
915.1490	0.003632
915.8699	0.002196
916.5908	0.005659
917.3118	0.002893
918.0328	0.004181
918.7539	0.002809
919.4751	0.003104
920.1964	0.003864
920.9177	0.003590
921.6391	0.002640
922.3606	0.004012
923.0821	0.002618
923.8037	0.003864
924.5254	0.002724
925.2471	0.003252
925.9689	0.002682
926.6908	0.002259
927.4127	0.002175
928.1347	0.003738
928.8568	0.002407
929.5789	0.003463
930.3011	0.002893
931.0234	0.002386
931.7457	0.001415
932.4681	0.001309
933.1906	0.002238
933.9131	0.003125
934.6358	0.002091
935.3584	0.002048
936.0812	0.002365
936.8040	0.000042
937.5269	0.001267
938.2498	0.002259
938.9728	0.001077
939.6959	0.001415
940.4190	0.000992
941.1422	0.002238
941.8655	0.001520
942.5889	0.000908
943.3123	0.001795
944.0357	0.001077
944.7593	0.001668
945.4829	0.002365
946.2066	0.001689
946.9303	-0.001119
947.6541	0.003041
948.3780	0.000950
949.1019	0.000887
949.8259	0.000929
950.5500	0.001161
951.2741	0.001098
951.9983	0.001373
952.7226	0.001520
953.4469	0.001542
954.1713	0.001668
954.8958	0.000971
955.6203	0.001542
956.3449	0.000887
957.0696	0.001605
957.7943	0.000338
958.5191	0.001668
959.2439	0.000528
959.9688	0.000232
960.6938	0.000929
961.4189	0.000760
962.1440	0.001288
962.8692	-0.000465
963.5944	-0.000697
964.3197	0.000655
965.0451	0.000633
965.7705	0.000253
966.4960	0.000971
967.2216	0.000021
967.9472	0.002027
968.6729	0.001056
969.3987	0.000824
970.1245	0.000549
970.8504	-0.000021
971.5763	0.000275
972.3023	0.000824
973.0284	0.000992
973.7545	0.001732
974.4807	0.000148
975.2070	0.002217
975.9333	0.000401
976.6597	0.000443
977.3862	0.000697
978.1127	-0.000232
978.8393	0.000781
979.5659	0.001330
980.2926	-0.000338
981.0194	0.000021
981.7462	0.000253
982.4731	0.000655
983.2001	-0.000528
983.9271	0.001732
984.6542	-0.000591
985.3814	0.000422
986.1086	-0.000169
986.8358	0.000781
987.5632	-0.000591
988.2906	0.001436
989.0180	0.000971
989.7456	0.001035
990.4732	-0.001014
991.2008	0.000676
991.9285	-0.000528
992.6563	0.000760
993.3841	-0.001204
994.1120	0.000676
994.8400	-0.000971
995.5680	-0.000021
996.2961	-0.000992
997.0242	0.001774
997.7524	-0.000866
998.4807	-0.000591
999.2090	0.000084
999.9374	-0.000528
1000.67	0.000084
1001.39	-0.001204
1002.12	0.000000
1002.85	0.000338
1003.58	0.001668
1004.31	-0.000971
1005.04	0.001077
1005.77	0.000000
1006.5	0.000401
1007.22	0.001077
1007.95	0.000802
1008.68	-0.000929
1009.41	0.001415
1010.14	0.000253
1010.87	0.000908
1011.6	0.000866
1012.33	-0.000401
1013.06	-0.000655
1013.79	0.000676
1014.52	0.000486
1015.25	0.000084
1015.98	-0.000422
1016.71	0.000866
1017.44	-0.001077
1018.17	0.000781
1018.9	0.001457
1019.63	0.000084
1020.36	-0.000190
1021.09	0.000338
1021.82	-0.000232
1022.55	-0.001626
1023.03	0.000232