File: spectrum_2025-06-19_08-54-37.txt
# Wavelength (nm)	Intensity (a.u.)
197.7802	0.000828
198.3922	-0.000144
199.0044	0.000892
199.6168	-0.000229
200.2292	0.000236
200.8418	-0.000377
201.4546	0.000997
202.0674	0.000828
202.6805	-0.000123
203.2936	-0.000081
203.9069	0.000004
204.5203	-0.000398
205.1338	0.000913
205.7475	0.000109
206.3614	-0.000102
206.9753	0.001272
207.5894	0.000088
208.2036	-0.000123
208.8180	-0.000271
209.4325	0.000955
210.0471	0.000786
210.6618	-0.001033
211.2767	0.001272
211.8918	0.001145
212.5069	0.000469
213.1222	0.000596
213.7376	-0.000462
214.3532	-0.001603
214.9689	-0.000927
215.5847	0.000574
216.2007	0.001103
216.8168	-0.000504
217.4330	0.000680
218.0494	-0.000842
218.6659	0.001124
219.2825	-0.000504
219.8992	0.001610
220.5161	0.000236
221.1332	-0.000039
221.7503	0.000173
222.3676	0.001293
222.9850	0.000913
223.6026	0.000152
224.2203	0.001780
224.8381	-0.001117
225.4561	-0.000462
226.0742	-0.000440
226.6924	-0.000144
227.3107	-0.000123
227.9292	0.002202
228.5478	0.001188
229.1666	-0.000208
229.7855	-0.002407
230.4045	0.000405
231.0236	0.000553
231.6429	0.000152
232.2623	-0.001265
232.8818	-0.000292
233.5015	0.001674
234.1213	0.001970
234.7413	0.001462
235.3613	-0.000166
235.9815	-0.000208
236.6018	0.002435
237.2223	0.000913
237.8429	0.000426
238.4636	0.002477
239.0845	-0.000187
239.7055	0.001399
240.3266	0.000321
240.9478	0.000638
241.5692	-0.000462
242.1907	0.000173
242.8124	0.000638
243.4341	-0.000292
244.0560	0.001547
244.6781	0.000574
245.3002	-0.002957
245.9225	0.002583
246.5449	-0.000736
247.1675	0.001462
247.7902	-0.001054
248.4130	-0.001455
249.0359	0.000574
249.6590	0.001420
250.2822	-0.000229
250.9056	-0.000250
251.5290	-0.001181
252.1526	-0.000166
252.7763	-0.000673
253.4002	0.000152
254.0242	-0.000800
254.6483	-0.000440
255.2725	-0.000187
255.8969	0.000892
256.5214	0.002012
257.1460	0.000659
257.7708	-0.000758
258.3957	0.000934
259.0207	0.000744
259.6459	-0.000440
260.2711	-0.001667
260.8965	0.000342
261.5221	-0.000166
262.1477	0.000405
262.7735	0.000004
263.3995	0.002160
264.0255	-0.000081
264.6517	0.001061
265.2780	-0.000356
265.9044	0.002350
266.5310	-0.000166
267.1577	0.000659
267.7845	0.000194
268.4114	0.000004
269.0385	-0.000440
269.6657	0.000976
270.2931	-0.000673
270.9205	-0.000906
271.5481	-0.001075
272.1758	0.000955
272.8037	-0.001963
273.4316	-0.000356
274.0597	0.000469
274.6880	0.000088
275.3163	-0.000335
275.9448	0.000194
276.5734	-0.001921
277.2022	0.000638
277.8310	0.000257
278.4600	0.000870
279.0891	-0.000250
279.7184	0.000574
280.3477	-0.001054
280.9772	0.002012
281.6069	0.001906
282.2366	0.000088
282.8665	-0.000335
283.4965	0.000574
284.1266	-0.000906
284.7569	-0.000927
285.3873	0.000828
286.0178	0.000152
286.6484	-0.000081
287.2792	0.001166
287.9101	-0.000842
288.5411	-0.000018
289.1723	-0.000039
289.8035	-0.000736
290.4349	0.001420
291.0665	0.000300
291.6981	0.000152
292.3299	0.001336
292.9618	0.000278
293.5938	0.000574
294.2260	-0.000335
294.8582	-0.000060
295.4906	-0.000419
296.1232	-0.000060
296.7558	-0.000610
297.3886	-0.000462
298.0215	-0.000271
298.6545	0.000088
299.2877	-0.000631
299.9210	0.001610
300.5544	0.000553
301.1879	0.000892
301.8215	-0.000610
302.4553	0.001124
303.0892	-0.000144
303.7233	-0.000694
304.3574	0.000130
304.9917	0.001928
305.6261	-0.000546
306.2606	-0.000863
306.8953	-0.001307
307.5301	-0.000398
308.1650	-0.001138
308.8000	0.000976
309.4351	-0.001942
310.0704	0.000934
310.7058	-0.000821
311.3413	0.000448
311.9770	-0.000144
312.6127	-0.000102
313.2486	-0.001265
313.8846	0.000828
314.5208	-0.000440
315.1570	0.000025
315.7934	0.000638
316.4299	-0.000356
317.0666	-0.000144
317.7033	0.000680
318.3402	0.000342
318.9772	-0.000652
319.6143	-0.000166
320.2516	0.000278
320.8890	0.000363
321.5265	0.001822
322.1641	-0.001350
322.8018	0.000025
323.4397	-0.001540
324.0777	-0.001033
324.7158	-0.000018
325.3540	0.000426
325.9924	-0.000800
326.6308	0.000828
327.2694	0.000215
327.9082	0.000786
328.5470	0.001293
329.1860	0.000384
329.8251	-0.000377
330.4643	0.000405
331.1036	0.000426
331.7431	0.000046
332.3826	-0.000144
333.0223	0.001103
333.6622	0.000448
334.3021	0.000088
334.9422	0.000574
335.5823	0.000617
336.2227	-0.000927
336.8631	0.002583
337.5036	0.000278
338.1443	0.000088
338.7851	-0.001033
339.4260	-0.000102
340.0670	0.000469
340.7082	-0.000144
341.3495	-0.001181
341.9909	0.002583
342.6324	0.000321
343.2740	0.000004
343.9158	-0.000525
344.5577	0.000426
345.1997	-0.000504
345.8418	-0.000610
346.4840	-0.000039
347.1264	-0.000673
347.7689	-0.000673
348.4115	0.001314
349.0542	0.001061
349.6971	0.000173
350.3400	0.001124
350.9831	0.000384
351.6263	0.000321
352.2696	0.000321
352.9131	-0.000525
353.5566	0.000913
354.2003	0.000490
354.8441	0.000236
355.4881	-0.000208
356.1321	0.000236
356.7763	-0.000187
357.4206	-0.000102
358.0650	0.000342
358.7095	-0.000060
359.3541	-0.002322
359.9989	0.000934
360.6438	0.000638
361.2888	0.000109
361.9339	-0.000821
362.5791	0.000976
363.2245	-0.000588
363.8699	0.000173
364.5155	-0.001011
365.1612	-0.000187
365.8071	-0.000144
366.4530	0.000046
367.0991	0.001209
367.7453	0.000574
368.3916	-0.000779
369.0380	-0.001286
369.6845	0.000025
370.3312	0.000638
370.9780	0.000194
371.6249	0.001568
372.2719	-0.001646
372.9190	-0.000081
373.5663	0.000321
374.2136	0.000173
374.8611	-0.000800
375.5087	0.000490
376.1564	0.002858
376.8043	0.000934
377.4522	-0.001054
378.1003	0.000680
378.7485	0.000596
379.3968	0.001632
380.0452	-0.001075
380.6938	-0.000969
381.3424	-0.000314
381.9912	-0.000250
382.6401	-0.000694
383.2891	-0.000018
383.9382	-0.000335
384.5875	-0.001033
385.2368	0.000638
385.8863	-0.000927
386.5359	-0.000990
387.1856	-0.001033
387.8355	-0.001223
388.4854	-0.000123
389.1355	0.001547
389.7856	0.000828
390.4359	0.000828
391.0863	-0.001138
391.7369	0.000173
392.3875	-0.000800
393.0383	-0.000039
393.6891	-0.000144
394.3401	-0.000525
394.9912	0.000807
395.6425	0.000849
396.2938	0.000363
396.9453	-0.001625
397.5968	0.000448
398.2485	-0.001138
398.9003	-0.000271
399.5522	-0.000440
400.2043	0.001124
400.8564	0.001357
401.5087	0.000955
402.1610	0.000173
402.8135	-0.000884
403.4661	-0.000525
404.1189	0.000638
404.7717	-0.000821
405.4246	0.000765
406.0777	-0.000377
406.7309	0.000257
407.3842	-0.000377
408.0376	-0.000588
408.6911	0.000892
409.3448	-0.000546
409.9985	0.000025
410.6524	-0.000610
411.3064	0.001040
411.9605	-0.000525
412.6147	0.001547
413.2690	0.000892
413.9234	0.000892
414.5780	0.000321
415.2326	0.001272
415.8874	0.001695
416.5423	-0.000462
417.1973	0.000278
417.8524	-0.001202
418.5077	-0.000229
419.1630	0.000659
419.8185	-0.001011
420.4741	0.001251
421.1298	-0.001561
421.7856	-0.000271
422.4415	-0.000779
423.0975	0.000744
423.7536	-0.000525
424.4099	0.002224
425.0663	-0.000483
425.7228	0.001737
426.3793	0.000469
427.0361	-0.001138
427.6929	-0.001265
428.3498	-0.001455
429.0068	0.000278
429.6640	0.000638
430.3213	-0.000250
430.9787	-0.000335
431.6362	-0.000335
432.2938	-0.000990
432.9515	-0.002428
433.6093	-0.000144
434.2673	0.000955
434.9253	0.000278
435.5835	-0.000166
436.2418	-0.000187
436.9001	0.000004
437.5586	0.001632
438.2173	-0.000884
438.8760	0.001272
439.5348	0.000701
440.1938	-0.000039
440.8528	0.000257
441.5120	0.000194
442.1713	-0.001033
442.8307	0.000997
443.4902	-0.000483
444.1498	0.000405
444.8095	0.000405
445.4694	0.000744
446.1293	0.001103
446.7894	-0.000377
447.4496	0.000046
448.1098	0.000278
448.7702	0.001251
449.4307	0.000807
450.0914	-0.000546
450.7521	-0.000018
451.4129	-0.001096
452.0739	-0.000398
452.7349	0.000574
453.3961	-0.000144
454.0574	0.000363
454.7188	-0.000356
455.3803	-0.000229
456.0419	-0.000462
456.7036	-0.000166
457.3654	0.001653
458.0274	0.001188
458.6894	0.002224
459.3516	0.000300
460.0138	-0.000018
460.6762	0.000511
461.3387	-0.001392
462.0013	0.000490
462.6640	0.000384
463.3268	0.000511
463.9897	-0.000208
464.6528	0.001209
465.3159	-0.001054
465.9792	-0.000229
466.6425	0.000025
467.3060	0.000490
467.9696	-0.001371
468.6333	0.000913
469.2970	0.000236
469.9610	0.001082
470.6250	-0.001646
471.2891	-0.000250
471.9533	-0.001033
472.6177	-0.001075
473.2821	0.000321
473.9467	-0.000271
474.6113	0.000722
475.2761	-0.000102
475.9410	-0.000166
476.6060	-0.000060
477.2711	0.006558
477.9363	-0.000208
478.6016	0.000236
479.2670	-0.000800
479.9325	0.000236
480.5982	-0.000440
481.2639	0.000511
481.9298	0.000257
482.5957	0.000130
483.2618	-0.001075
483.9280	0.000490
484.5943	0.000426
485.2606	0.000236
485.9271	0.000130
486.5937	-0.000419
487.2605	0.001632
487.9273	-0.000969
488.5942	0.000765
489.2612	-0.000863
489.9284	0.000511
490.5956	0.000152
491.2630	0.000955
491.9304	-0.001054
492.5980	0.002202
493.2657	-0.000546
493.9334	-0.000144
494.6013	0.000765
495.2693	0.002477
495.9374	-0.000927
496.6056	-0.000483
497.2739	0.001061
497.9423	-0.000018
498.6109	-0.000588
499.2795	0.000913
499.9482	-0.000314
500.6171	0.001991
501.2860	-0.000123
501.9551	0.000934
502.6242	0.000448
503.2935	0.000828
503.9628	-0.000271
504.6323	0.000321
505.3019	-0.000314
505.9716	-0.000271
506.6414	0.000997
507.3113	0.000617
507.9813	-0.000525
508.6514	-0.000567
509.3216	0.001737
509.9919	0.000215
510.6623	0.000934
511.3329	0.001061
512.0035	0.000342
512.6742	0.000321
513.3451	0.001272
514.0160	0.000236
514.6871	-0.000779
515.3582	0.002498
516.0295	0.000321
516.7008	0.001822
517.3723	-0.000990
518.0439	-0.001096
518.7155	0.000638
519.3873	0.001230
520.0592	-0.000440
520.7312	-0.000821
521.4033	0.001378
522.0755	-0.000588
522.7478	-0.001329
523.4202	-0.000398
524.0927	0.000152
524.7653	-0.001815
525.4380	-0.000694
526.1108	-0.000842
526.7837	0.000828
527.4568	-0.001329
528.1299	0.000426
528.8031	-0.000546
529.4765	0.001082
530.1499	0.001251
530.8234	0.000701
531.4971	-0.000398
532.1708	0.000236
532.8447	0.000828
533.5186	0.000574
534.1927	0.000173
534.8668	0.000194
535.5411	-0.001033
536.2155	-0.001075
536.8899	-0.000990
537.5645	0.001399
538.2392	-0.000567
538.9139	0.000448
539.5888	0.000109
540.2638	0.000997
540.9389	-0.001096
541.6140	0.000786
542.2893	0.000405
542.9647	0.002350
543.6402	-0.001202
544.3158	-0.001075
544.9915	0.000511
545.6673	-0.000229
546.3432	-0.000440
547.0192	-0.001561
547.6953	0.001674
548.3715	-0.000187
549.0478	-0.000335
549.7242	-0.000631
550.4007	-0.001815
551.0773	-0.001329
551.7540	-0.000800
552.4308	-0.000990
553.1077	0.002329
553.7847	-0.001477
554.4618	-0.000610
555.1390	-0.001455
555.8163	0.003090
556.4937	-0.000863
557.1712	-0.000821
557.8488	0.000765
558.5266	0.000405
559.2044	0.000342
559.8823	-0.000821
560.5603	0.001124
561.2384	-0.001096
561.9166	0.000321
562.5949	0.000617
563.2733	-0.000123
563.9519	-0.000271
564.6305	0.001336
565.3092	0.000321
565.9880	0.001124
566.6669	-0.000018
567.3459	-0.000229
568.0250	-0.000631
568.7043	0.002837
569.3836	0.000892
570.0630	0.000744
570.7425	-0.000906
571.4221	0.001632
572.1018	0.000511
572.7816	0.001632
573.4615	0.000067
574.1415	0.001378
574.8216	-0.000335
575.5018	0.001801
576.1821	-0.000187
576.8626	0.000300
577.5431	0.000194
578.2237	0.000574
578.9044	-0.000483
579.5851	-0.001033
580.2660	0.000363
580.9470	0.000934
581.6281	0.000342
582.3093	0.000067
582.9906	0.000976
583.6720	0.001864
584.3535	0.001378
585.0351	-0.000694
585.7167	-0.000779
586.3985	0.000130
587.0804	0.000469
587.7624	0.000744
588.4445	0.000025
589.1266	0.000300
589.8089	0.001082
590.4913	0.000300
591.1737	-0.000419
591.8563	-0.000123
592.5389	0.001272
593.2217	-0.001117
593.9046	-0.000567
594.5875	-0.001033
595.2705	-0.000335
595.9537	-0.000144
596.6369	0.001610
597.3203	-0.000440
598.0037	0.000807
598.6872	-0.000842
599.3709	0.002118
600.0546	0.000236
600.7384	0.000342
601.4223	-0.000483
602.1064	-0.002047
602.7905	0.000870
603.4747	-0.000356
604.1590	-0.001878
604.8434	-0.001117
605.5279	-0.000863
606.2125	0.000173
606.8972	-0.000208
607.5819	0.001018
608.2668	0.000342
608.9518	-0.000144
609.6369	0.000849
610.3220	0.000194
611.0073	0.000025
611.6927	-0.000187
612.3781	-0.000758
613.0637	0.001589
613.7493	0.000913
614.4351	-0.000398
615.1209	-0.000377
615.8068	0.001505
616.4929	-0.000271
617.1790	0.000088
617.8652	0.000321
618.5515	0.000025
619.2379	0.000617
619.9244	0.000617
620.6110	-0.000060
621.2977	0.000004
621.9845	0.000300
622.6714	-0.000440
623.3584	-0.000525
624.0454	-0.000335
624.7326	-0.000018
625.4199	0.000532
626.1072	-0.001265
626.7947	-0.000631
627.4822	-0.000123
628.1698	-0.000187
628.8576	0.000278
629.5454	-0.000440
630.2333	0.001399
630.9213	-0.000462
631.6094	-0.000990
632.2976	0.001822
632.9859	0.000067
633.6743	0.002837
634.3628	-0.000060
635.0514	0.000680
635.7400	0.000342
636.4288	-0.000673
637.1177	0.000765
637.8066	-0.000250
638.4957	-0.000462
639.1848	-0.000419
639.8740	0.000813
640.5633	-0.000487
641.2528	0.000893
641.9423	0.000832
642.6319	-0.000144
643.3216	-0.000040
644.0113	0.000400
644.7012	0.000026
645.3912	0.001821
646.0812	-0.000554
646.7714	0.000004
647.4616	0.000782
648.1520	0.001147
648.8424	0.000593
649.5329	-0.001411
650.2236	-0.000945
650.9143	0.001153
651.6051	-0.001673
652.2960	0.000236
652.9870	-0.000530
653.6780	0.000669
654.3692	-0.000866
655.0605	-0.000979
655.7518	0.000004
656.4433	0.001302
657.1348	-0.000144
657.8264	0.000849
658.5181	0.000510
659.2099	-0.000763
659.9018	-0.001119
660.5938	-0.001369
661.2859	-0.000759
661.9781	0.000279
662.6704	-0.001209
663.3627	0.000257
664.0552	0.000025
664.7477	-0.000144
665.4403	0.000943
666.1330	0.002086
666.8259	0.000278
667.5188	0.000173
668.2117	-0.000185
668.9048	-0.000166
669.5980	-0.000102
670.2913	0.000469
670.9846	0.000109
671.6781	0.000511
672.3716	-0.000884
673.0652	0.000004
673.7589	0.000363
674.4527	-0.000166
675.1466	-0.000335
675.8406	0.000765
676.5347	-0.000250
677.2288	0.000152
677.9231	0.000490
678.6174	-0.000715
679.3119	-0.000419
680.0064	-0.000208
680.7010	-0.001857
681.3957	-0.000229
682.0905	0.000342
682.7854	0.000321
683.4803	-0.000102
684.1754	0.002498
684.8705	-0.000842
685.5658	0.001188
686.2611	0.000004
686.9565	-0.000927
687.6520	0.000130
688.3476	0.001737
689.0433	-0.000863
689.7390	-0.000018
690.4349	-0.000821
691.1308	0.001082
691.8269	0.000067
692.5230	-0.000652
693.2192	0.000426
693.9155	-0.000779
694.6119	-0.000060
695.3083	0.000088
696.0049	0.000130
696.7016	-0.001730
697.3983	0.000976
698.0951	-0.000144
698.7920	0.005564
699.4890	-0.001773
700.1861	0.000807
700.8833	-0.000440
701.5806	0.001357
702.2779	-0.000969
702.9753	0.000828
703.6729	0.001251
704.3705	0.000849
705.0682	0.000617
705.7660	0.001526
706.4638	0.000321
707.1618	0.002139
707.8599	-0.001455
708.5580	-0.001117
709.2562	-0.000018
709.9545	0.000300
710.6529	0.000574
711.3514	-0.000419
712.0500	-0.000440
712.7486	-0.000018
713.4474	-0.001540
714.1462	0.001251
714.8451	-0.001413
715.5441	0.000870
716.2432	-0.000314
716.9424	0.000236
717.6416	-0.001202
718.3410	-0.001329
719.0404	0.001716
719.7399	0.000194
720.4395	0.000278
721.1392	0.001547
721.8390	0.001949
722.5388	0.001399
723.2388	0.000469
723.9388	-0.000123
724.6389	0.000659
725.3391	0.001864
726.0394	-0.000483
726.7398	0.000849
727.4403	-0.000081
728.1408	0.002160
728.8414	-0.001688
729.5421	0.000405
730.2429	-0.000990
730.9438	0.000025
731.6448	-0.000673
732.3458	0.000426
733.0470	-0.001202
733.7482	-0.000335
734.4495	-0.000377
735.1509	0.001505
735.8524	-0.000208
736.5539	0.000194
737.2556	0.001441
737.9573	-0.000842
738.6591	-0.000292
739.3610	0.001272
740.0630	0.000659
740.7651	0.000870
741.4672	-0.000187
742.1695	-0.001836
742.8718	-0.000736
743.5742	0.000384
744.2767	-0.001582
744.9792	0.000849
745.6819	0.000617
746.3846	0.000786
747.0874	-0.000081
747.7903	0.000807
748.4933	0.001018
749.1964	0.002160
749.8995	-0.002428
750.6028	-0.000673
751.3061	-0.000631
752.0095	0.003260
752.7130	0.000152
753.4166	0.000046
754.1202	0.000152
754.8239	-0.000419
755.5278	-0.000250
756.2317	0.000532
756.9356	-0.000525
757.6397	-0.000229
758.3438	-0.001096
759.0481	0.000596
759.7524	-0.000440
760.4568	0.001336
761.1613	0.000617
761.8658	-0.001413
762.5705	0.000046
763.2752	0.001462
763.9800	0.001547
764.6849	0.000130
765.3898	-0.001011
766.0949	0.001547
766.8000	-0.001582
767.5052	0.000257
768.2105	-0.000018
768.9159	-0.000377
769.6214	-0.000356
770.3269	-0.000314
771.0325	0.001970
771.7382	-0.000758
772.4440	0.000152
773.1499	0.000490
773.8558	0.000596
774.5618	-0.001307
775.2679	0.000744
775.9741	-0.000673
776.6804	0.001251
777.3868	-0.001329
778.0932	-0.000419
778.7997	-0.001625
779.5063	0.000849
780.2130	0.000448
780.9197	0.000173
781.6265	-0.000187
782.3335	0.000659
783.0405	-0.001329
783.7475	0.001822
784.4547	-0.000758
785.1619	0.000046
785.8692	-0.001540
786.5766	0.000152
787.2841	0.000574
787.9917	-0.000462
788.6993	-0.002047
789.4070	0.002139
790.1148	0.000659
790.8227	0.000194
791.5306	0.000828
792.2387	0.000321
792.9468	-0.000948
793.6550	0.001420
794.3632	-0.001477
795.0716	-0.001646
795.7800	-0.001265
796.4885	-0.000060
797.1971	-0.000356
797.9058	0.000004
798.6145	-0.000863
799.3233	0.000870
800.0322	0.000236
800.7412	-0.000504
801.4503	-0.000800
802.1594	0.000596
802.8686	0.001082
803.5779	-0.000673
804.2873	0.000744
804.9968	0.001378
805.7063	0.000744
806.4159	-0.001181
807.1256	0.002160
807.8354	-0.001540
808.5452	-0.000525
809.2551	0.001420
809.9651	0.000638
810.6752	-0.000250
811.3853	0.001040
812.0956	0.000194
812.8059	-0.002322
813.5163	0.000321
814.2267	-0.000335
814.9373	-0.001011
815.6479	0.000680
816.3586	0.000828
817.0694	0.001293
817.7802	0.000680
818.4912	0.001145
819.2022	0.000701
819.9133	0.000215
820.6244	-0.001434
821.3357	-0.000335
822.0470	-0.000758
822.7584	-0.000694
823.4698	0.000130
824.1814	-0.000356
824.8930	-0.000990
825.6047	-0.000060
826.3165	-0.000440
827.0283	0.000765
827.7402	-0.000060
828.4522	0.001040
829.1643	0.000659
829.8765	0.003830
830.5887	0.000786
831.3010	-0.001371
832.0134	-0.000144
832.7259	-0.000314
833.4384	0.000173
834.1510	-0.000483
834.8637	0.000025
835.5765	-0.001688
836.2893	-0.000483
837.0022	0.000173
837.7152	-0.000990
838.4283	0.000511
839.1414	0.000004
839.8546	0.000596
840.5679	-0.000060
841.2813	0.000976
841.9947	-0.000102
842.7082	0.002202
843.4218	-0.001477
844.1355	-0.000060
844.8492	-0.002513
845.5631	0.000088
846.2770	0.000130
846.9909	0.001695
847.7050	0.001399
848.4191	-0.000018
849.1333	0.000913
849.8475	0.000701
850.5619	-0.000779
851.2763	0.000321
851.9908	0.000426
852.7053	0.000321
853.4200	-0.001202
854.1347	0.000870
854.8495	-0.000060
855.5643	0.000617
856.2792	0.000173
856.9942	0.001505
857.7093	0.000088
858.4245	0.000109
859.1397	0.000532
859.8550	0.000596
860.5704	0.000532
861.2858	0.000955
862.0013	0.000236
862.7169	0.000532
863.4326	0.001420
864.1483	-0.000504
864.8642	-0.001371
865.5800	-0.000821
866.2960	0.000617
867.0120	0.000913
867.7281	-0.000398
868.4443	-0.001265
869.1606	0.000363
869.8769	0.000574
870.5933	-0.000546
871.3097	0.000617
872.0263	0.000300
872.7429	-0.001794
873.4596	-0.001582
874.1763	0.000067
874.8932	0.000659
875.6101	0.000194
876.3270	-0.001181
877.0441	-0.001096
877.7612	0.002160
878.4784	-0.001117
879.1957	0.002097
879.9130	0.000405
880.6304	-0.000271
881.3479	-0.000758
882.0654	0.001526
882.7831	-0.000208
883.5007	0.000997
884.2185	0.000553
884.9363	0.000955
885.6542	-0.000567
886.3722	-0.000377
887.0903	-0.000567
887.8084	-0.000166
888.5266	-0.001286
889.2448	-0.000060
889.9632	0.000405
890.6816	0.000173
891.4001	0.002033
892.1186	0.000321
892.8372	-0.000483
893.5559	0.000088
894.2747	-0.001223
894.9935	0.000300
895.7124	0.000152
896.4314	0.000617
897.1504	-0.000927
897.8695	0.000067
898.5887	-0.001181
899.3079	0.000574
900.0272	-0.000779
900.7466	0.001251
901.4661	0.000342
902.1856	-0.000694
902.9052	-0.001371
903.6249	0.001166
904.3446	-0.000546
905.0644	0.000405
905.7843	-0.001329
906.5043	-0.000525
907.2243	-0.000567
907.9444	-0.000060
908.6645	-0.001307
909.3847	0.003027
910.1050	0.000596
910.8254	0.000744
911.5458	0.000553
912.2663	-0.000504
912.9869	-0.001899
913.7075	0.000934
914.4283	-0.001921
915.1490	-0.002005
915.8699	0.000130
916.5908	0.001251
917.3118	-0.001075
918.0328	0.002329
918.7539	-0.000144
919.4751	0.000384
920.1964	-0.000758
920.9177	0.000532
921.6391	-0.000567
922.3606	0.000194
923.0821	0.000469
923.8037	-0.000292
924.5254	0.001103
925.2471	0.000574
925.9689	-0.001011
926.6908	0.000997
927.4127	0.001166
928.1347	-0.000504
928.8568	-0.001181
929.5789	-0.000567
930.3011	0.001695
931.0234	0.001251
931.7457	-0.000292
932.4681	0.000363
933.1906	0.000744
933.9131	-0.001329
934.6358	-0.001286
935.3584	-0.000229
936.0812	0.001293
936.8040	-0.000229
937.5269	0.000194
938.2498	0.000067
938.9728	0.000849
939.6959	-0.001646
940.4190	-0.000123
941.1422	0.000553
941.8655	-0.000187
942.5889	0.001399
943.3123	-0.000314
944.0357	-0.000631
944.7593	-0.000483
945.4829	-0.001688
946.2066	0.000997
946.9303	0.000849
947.6541	-0.000800
948.3780	0.000490
949.1019	0.000384
949.8259	0.001484
950.5500	0.000342
951.2741	-0.000821
951.9983	-0.000123
952.7226	-0.000229
953.4469	-0.000821
954.1713	-0.000927
954.8958	0.000173
955.6203	-0.000610
956.3449	0.003260
957.0696	-0.001709
957.7943	0.000321
958.5191	-0.000039
959.2439	0.001420
959.9688	-0.000758
960.6938	0.001378
961.4189	0.000617
962.1440	0.001209
962.8692	-0.000356
963.5944	0.000997
964.3197	0.000215
965.0451	0.001526
965.7705	0.000405
966.4960	0.000870
967.2216	0.000469
967.9472	-0.000525
968.6729	-0.000546
969.3987	0.001251
970.1245	-0.001159
970.8504	0.000807
971.5763	-0.000250
972.3023	-0.000483
973.0284	-0.000631
973.7545	-0.000483
974.4807	0.000511
975.2070	-0.001096
975.9333	0.001018
976.6597	0.001695
977.3862	-0.000652
978.1127	0.000236
978.8393	0.000701
979.5659	0.002202
980.2926	-0.000166
981.0194	-0.001329
981.7462	0.000109
982.4731	0.000680
983.2001	-0.001054
983.9271	-0.000610
984.6542	-0.000356
985.3814	-0.001519
986.1086	-0.001202
986.8358	0.001103
987.5632	0.000215
988.2906	0.000997
989.0180	0.000109
989.7456	-0.000990
990.4732	-0.000588
991.2008	0.001166
991.9285	-0.000081
992.6563	-0.000483
993.3841	0.000722
994.1120	-0.000018
994.8400	-0.000398
995.5680	0.000659
996.2961	-0.000525
997.0242	-0.000419
997.7524	0.000828
998.4807	0.001251
999.2090	0.000913
999.9374	-0.001709
1000.67	-0.001011
1001.39	0.000004
1002.12	0.000278
1002.85	0.001272
1003.58	-0.000694
1004.31	-0.000102
1005.04	-0.000884
1005.77	0.000553
1006.5	0.001145
1007.22	0.001568
1007.95	0.000722
1008.68	-0.000863
1009.41	-0.001371
1010.14	-0.000504
1010.87	0.000130
1011.6	0.000278
1012.33	-0.000123
1013.06	0.001230
1013.79	0.000405
1014.52	0.000342
1015.25	-0.000081
1015.98	-0.000081
1016.71	0.001462
1017.44	0.001336
1018.17	0.000469
1018.9	0.001061
1019.63	0.000722
1020.36	-0.000208
1021.09	0.001082
1021.82	-0.003654
1022.55	-0.001498
1023.03	-0.003358