File: spectrum_2025-06-19_09-04-51.txt
# Wavelength (nm)	Intensity (a.u.)
197.7802	0.001003
198.3922	-0.000774
199.0044	0.001235
199.6168	-0.002021
200.2292	0.000220
200.8418	-0.000118
201.4546	0.001320
202.0674	0.000559
202.6805	-0.001239
203.2936	0.001722
203.9069	0.001193
204.5203	0.001235
205.1338	0.000051
205.7475	0.000559
206.3614	-0.000710
206.9753	-0.001006
207.5894	-0.002317
208.2036	-0.001598
208.8180	0.000051
209.4325	0.001130
210.0471	-0.000583
210.6618	0.000411
211.2767	0.001045
211.8918	-0.001281
212.5069	0.001172
213.1222	0.002314
213.7376	-0.001387
214.3532	0.000453
214.9689	-0.001175
215.5847	0.000686
216.2007	0.001806
216.8168	-0.001197
217.4330	0.000157
218.0494	0.000178
218.6659	0.000982
219.2825	-0.000562
219.8992	0.000707
220.5161	0.000157
221.1332	0.000580
221.7503	0.000389
222.3676	-0.000541
222.9850	0.000960
223.6026	0.000389
224.2203	0.000157
224.8381	-0.000033
225.4561	-0.001768
226.0742	0.000284
226.6924	0.000834
227.3107	0.000072
227.9292	0.000601
228.5478	0.001257
229.1666	-0.000520
229.7855	-0.000837
230.4045	0.000580
231.0236	-0.000752
231.6429	0.000643
232.2623	-0.000414
232.8818	0.000178
233.5015	0.001764
234.1213	0.000389
234.7413	0.000347
235.3613	0.000643
235.9815	0.000263
236.6018	0.000284
237.2223	-0.001937
237.8429	0.000051
238.4636	0.002102
239.0845	0.000157
239.7055	0.000051
240.3266	0.000093
240.9478	0.000770
241.5692	0.000812
242.1907	-0.000287
242.8124	-0.000224
243.4341	0.000855
244.0560	-0.000816
244.6781	-0.000308
245.3002	-0.001577
245.9225	0.000749
246.5449	-0.001366
247.1675	-0.000985
247.7902	-0.001387
248.4130	0.000580
249.0359	0.001383
249.6590	0.000855
250.2822	-0.000139
250.9056	-0.000689
251.5290	-0.000308
252.1526	0.000432
252.7763	-0.000224
253.4002	0.001003
254.0242	0.000051
254.6483	0.000960
255.2725	0.000009
255.8969	0.001087
256.5214	0.000749
257.1460	0.002060
257.7708	-0.000837
258.3957	-0.000541
259.0207	0.000263
259.6459	-0.002064
260.2711	-0.000372
260.8965	-0.000731
261.5221	0.000791
262.1477	0.000876
262.7735	-0.000224
263.3995	0.001257
264.0255	0.000305
264.6517	0.000495
265.2780	-0.001006
265.9044	0.002546
266.5310	0.000178
267.1577	-0.000012
267.7845	-0.000478
268.4114	0.000263
269.0385	-0.001514
269.6657	0.001870
270.2931	0.000284
270.9205	0.000559
271.5481	-0.001070
272.1758	-0.000266
272.8037	-0.001006
273.4316	-0.001831
274.0597	0.000220
274.6880	-0.000689
275.3163	-0.001810
275.9448	0.000263
276.5734	-0.000266
277.2022	0.001320
277.8310	-0.001070
278.4600	0.000537
279.0891	-0.000604
279.7184	-0.000668
280.3477	-0.000879
280.9772	0.001299
281.6069	0.001785
282.2366	-0.000499
282.8665	-0.000456
283.4965	0.000537
284.1266	-0.001218
284.7569	0.000347
285.3873	0.002356
286.0178	0.000749
286.6484	-0.000922
287.2792	0.002631
287.9101	-0.000520
288.5411	0.000389
289.1723	-0.000118
289.8035	-0.000203
290.4349	-0.001218
291.0665	0.000559
291.6981	-0.001006
292.3299	0.000580
292.9618	0.000728
293.5938	0.000009
294.2260	0.000474
294.8582	0.000622
295.4906	-0.000033
296.1232	-0.000456
296.7558	-0.001366
297.3886	0.000030
298.0215	0.001489
298.6545	-0.000499
299.2877	-0.000858
299.9210	0.001574
300.5544	0.001722
301.1879	-0.000076
301.8215	0.000601
302.4553	-0.000520
303.0892	-0.001112
303.7233	0.000939
304.3574	-0.000499
304.9917	0.001743
305.6261	0.000093
306.2606	-0.001831
306.8953	-0.001958
307.5301	0.000178
308.1650	-0.001239
308.8000	0.000495
309.4351	-0.000266
310.0704	0.001257
310.7058	0.000284
311.3413	-0.000033
311.9770	0.000770
312.6127	0.000516
313.2486	-0.000160
313.8846	0.000982
314.5208	0.000474
315.1570	-0.000626
315.7934	-0.000182
316.4299	0.001405
317.0666	-0.000308
317.7033	0.000093
318.3402	-0.000795
318.9772	-0.000520
319.6143	0.001870
320.2516	-0.000562
320.8890	0.000093
321.5265	0.002631
322.1641	0.000495
322.8018	0.001299
323.4397	-0.000266
324.0777	-0.001197
324.7158	0.000305
325.3540	-0.000478
325.9924	-0.000499
326.6308	0.000516
327.2694	0.001278
327.9082	-0.000541
328.5470	-0.000562
329.1860	0.000939
329.8251	-0.000668
330.4643	0.001045
331.1036	0.000115
331.7431	0.000030
332.3826	0.000432
333.0223	0.000347
333.6622	0.000453
334.3021	0.000389
334.9422	0.000347
335.5823	-0.000985
336.2227	-0.000795
336.8631	0.001299
337.5036	-0.000901
338.1443	-0.001112
338.7851	-0.000795
339.4260	-0.000118
340.0670	0.000580
340.7082	0.000263
341.3495	-0.001768
341.9909	0.001870
342.6324	-0.000414
343.2740	0.001954
343.9158	0.000009
344.5577	0.000791
345.1997	-0.000139
345.8418	-0.000372
346.4840	0.000347
347.1264	-0.000012
347.7689	-0.000435
348.4115	0.000918
349.0542	-0.000795
349.6971	0.000918
350.3400	0.001764
350.9831	-0.000245
351.6263	-0.000076
352.2696	-0.000774
352.9131	0.001574
353.5566	0.000030
354.2003	0.001658
354.8441	0.000982
355.4881	0.000136
356.1321	-0.000478
356.7763	0.000284
357.4206	-0.000097
358.0650	0.000389
358.7095	-0.000351
359.3541	-0.000985
359.9989	0.000495
360.6438	-0.001006
361.2888	0.001151
361.9339	0.000749
362.5791	0.001172
363.2245	-0.000118
363.8699	0.001257
364.5155	0.000284
365.1612	-0.000795
365.8071	-0.000372
366.4530	0.000009
367.0991	0.000791
367.7453	-0.001429
368.3916	0.000009
369.0380	-0.000499
369.6845	-0.000901
370.3312	-0.000245
370.9780	0.000622
371.6249	0.000622
372.2719	-0.001175
372.9190	0.000939
373.5663	-0.000330
374.2136	-0.000351
374.8611	-0.002127
375.5087	0.000009
376.1564	0.001489
376.8043	-0.000943
377.4522	0.000749
378.1003	-0.000668
378.7485	0.000897
379.3968	-0.001450
380.0452	-0.000837
380.6938	0.000982
381.3424	0.001151
381.9912	0.000728
382.6401	-0.000182
383.2891	0.000834
383.9382	-0.000752
384.5875	0.000453
385.2368	-0.000224
385.8863	0.000241
386.5359	0.000918
387.1856	0.000495
387.8355	-0.000562
388.4854	0.000516
389.1355	0.001785
389.7856	-0.000203
390.4359	-0.001218
391.0863	-0.001091
391.7369	-0.000541
392.3875	0.000030
393.0383	0.000326
393.6891	0.000791
394.3401	-0.000308
394.9912	0.000368
395.6425	-0.000604
396.2938	0.000834
396.9453	-0.000182
397.5968	0.000664
398.2485	-0.001387
398.9003	-0.000858
399.5522	-0.001175
400.2043	0.000707
400.8564	0.000220
401.5087	0.002081
402.1610	-0.001345
402.8135	-0.001387
403.4661	-0.001641
404.1189	0.001257
404.7717	-0.001218
405.4246	0.000516
406.0777	0.000326
406.7309	0.000136
407.3842	-0.000541
408.0376	-0.000012
408.6911	0.000622
409.3448	0.000707
409.9985	-0.001239
410.6524	-0.000393
411.3064	-0.000372
411.9605	0.000178
412.6147	0.000072
413.2690	0.000368
413.9234	0.000326
414.5780	0.000474
415.2326	0.000284
415.8874	-0.001577
416.5423	0.000432
417.1973	0.000157
417.8524	0.000072
418.5077	-0.000012
419.1630	-0.002296
419.8185	-0.000435
420.4741	-0.000499
421.1298	0.000516
421.7856	-0.000689
422.4415	-0.000393
423.0975	-0.000266
423.7536	-0.000287
424.4099	-0.001366
425.0663	-0.000668
425.7228	0.007262
426.3793	0.000136
427.0361	-0.001091
427.6929	0.000093
428.3498	0.001426
429.0068	0.001531
429.6640	0.000474
430.3213	0.000051
430.9787	-0.000287
431.6362	0.000855
432.2938	0.000749
432.9515	-0.001789
433.6093	0.000368
434.2673	0.000009
434.9253	-0.000160
435.5835	0.000072
436.2418	-0.000203
436.9001	-0.000731
437.5586	0.000157
438.2173	0.000876
438.8760	-0.000541
439.5348	-0.000287
440.1938	0.000072
440.8528	0.002250
441.5120	0.000918
442.1713	-0.000076
442.8307	-0.000203
443.4902	0.001151
444.1498	-0.000647
444.8095	0.001320
445.4694	-0.000351
446.1293	0.000009
446.7894	0.000516
447.4496	0.001489
448.1098	-0.001175
448.7702	0.001679
449.4307	-0.001620
450.0914	-0.000985
450.7521	0.000220
451.4129	0.000411
452.0739	-0.001366
452.7349	-0.000118
453.3961	0.000516
454.0574	0.000009
454.7188	-0.000287
455.3803	0.001912
456.0419	0.000305
456.7036	0.001257
457.3654	0.000537
458.0274	-0.000330
458.6894	-0.000245
459.3516	0.001299
460.0138	-0.000097
460.6762	0.001531
461.3387	0.000643
462.0013	0.001172
462.6640	0.000982
463.3268	-0.000203
463.9897	-0.000351
464.6528	-0.001810
465.3159	0.000220
465.9792	-0.000372
466.6425	0.002568
467.3060	-0.000752
467.9696	-0.000795
468.6333	0.001151
469.2970	-0.001493
469.9610	0.000411
470.6250	0.000770
471.2891	0.000812
471.9533	0.000622
472.6177	-0.001725
473.2821	-0.000435
473.9467	0.000368
474.6113	-0.000139
475.2761	0.001468
475.9410	-0.001704
476.6060	0.002673
477.2711	-0.001006
477.9363	-0.001873
478.6016	-0.000689
479.2670	-0.000139
479.9325	-0.000287
480.5982	0.000495
481.2639	-0.000520
481.9298	-0.000731
482.5957	-0.000414
483.2618	0.000707
483.9280	0.000432
484.5943	-0.000393
485.2606	0.000389
485.9271	0.000072
486.5937	0.000749
487.2605	-0.000203
487.9273	0.000622
488.5942	0.001426
489.2612	-0.000139
489.9284	-0.000879
490.5956	0.001362
491.2630	0.000791
491.9304	-0.001577
492.5980	0.000072
493.2657	0.000559
493.9334	-0.001620
494.6013	0.000643
495.2693	-0.000118
495.9374	0.000136
496.6056	-0.001894
497.2739	-0.001366
497.9423	0.000432
498.6109	0.000115
499.2795	-0.001535
499.9482	-0.000287
500.6171	-0.000182
501.2860	-0.000076
501.9551	0.000770
502.6242	0.000939
503.2935	-0.001916
503.9628	-0.000308
504.6323	-0.000816
505.3019	-0.001577
505.9716	0.000834
506.6414	-0.000541
507.3113	0.000622
507.9813	-0.000964
508.6514	-0.000118
509.3216	0.000157
509.9919	-0.001175
510.6623	-0.001197
511.3329	0.000918
512.0035	-0.001323
512.6742	-0.000901
513.3451	-0.000604
514.0160	-0.000076
514.6871	0.000812
515.3582	0.000918
516.0295	-0.000012
516.7008	-0.000499
517.3723	0.001087
518.0439	-0.000858
518.7155	-0.000182
519.3873	-0.000456
520.0592	0.002293
520.7312	0.000368
521.4033	0.000982
522.0755	-0.000478
522.7478	-0.001683
523.4202	0.001912
524.0927	-0.000055
524.7653	-0.000245
525.4380	-0.000668
526.1108	-0.000372
526.7837	-0.001260
527.4568	-0.000118
528.1299	0.000241
528.8031	0.001066
529.4765	-0.000795
530.1499	-0.000414
530.8234	-0.001514
531.4971	0.001151
532.1708	-0.000647
532.8447	-0.001366
533.5186	-0.000541
534.1927	0.000305
534.8668	-0.001302
535.5411	0.000834
536.2155	-0.000033
536.8899	0.000812
537.5645	0.000136
538.2392	-0.001768
538.9139	0.000199
539.5888	0.001024
540.2638	-0.000583
540.9389	0.001785
541.6140	-0.000118
542.2893	0.000199
542.9647	0.000199
543.6402	0.000622
544.3158	0.000537
544.9915	-0.002042
545.6673	0.000876
546.3432	-0.000414
547.0192	0.000305
547.6953	0.001172
548.3715	0.000157
549.0478	0.000305
549.7242	-0.000562
550.4007	-0.001852
551.0773	-0.000351
551.7540	0.004111
552.4308	-0.000541
553.1077	0.001003
553.7847	0.000347
554.4618	-0.002106
555.1390	-0.000478
555.8163	0.001320
556.4937	-0.000901
557.1712	0.000580
557.8488	0.001701
558.5266	-0.000076
559.2044	-0.000203
559.8823	0.000326
560.5603	0.000305
561.2384	0.000389
561.9166	-0.000837
562.5949	-0.000435
563.2733	0.000897
563.9519	0.000495
564.6305	-0.001810
565.3092	-0.000414
565.9880	-0.001683
566.6669	0.000072
567.3459	-0.001471
568.0250	-0.000097
568.7043	-0.000901
569.3836	0.000136
570.0630	0.001172
570.7425	-0.000118
571.4221	-0.000943
572.1018	-0.000372
572.7816	0.000051
573.4615	0.002039
574.1415	-0.000562
574.8216	-0.000203
575.5018	0.000918
576.1821	-0.000583
576.8626	0.000284
577.5431	-0.000922
578.2237	-0.000055
578.9044	0.000009
579.5851	-0.000372
580.2660	-0.001408
580.9470	0.001151
581.6281	0.000834
582.3093	-0.000266
582.9906	-0.001070
583.6720	-0.000224
584.3535	0.000263
585.0351	-0.001366
585.7167	0.000516
586.3985	-0.000689
587.0804	0.000876
587.7624	0.001151
588.4445	-0.001408
589.1266	-0.001514
589.8089	0.000559
590.4913	0.000770
591.1737	-0.000012
591.8563	0.000072
592.5389	-0.000943
593.2217	0.000601
593.9046	0.000178
594.5875	-0.001027
595.2705	-0.000858
595.9537	-0.000837
596.6369	-0.001302
597.3203	-0.000879
598.0037	-0.000097
598.6872	0.000220
599.3709	0.000136
600.0546	-0.001598
600.7384	-0.001598
601.4223	-0.000033
602.1064	0.000368
602.7905	-0.001218
603.4747	-0.001302
604.1590	-0.000393
604.8434	-0.000752
605.5279	0.000241
606.2125	-0.000541
606.8972	0.001024
607.5819	0.000812
608.2668	-0.002064
608.9518	-0.000647
609.6369	-0.001049
610.3220	0.000284
611.0073	-0.001556
611.6927	0.000030
612.3781	0.001468
613.0637	-0.000689
613.7493	0.001553
614.4351	0.000411
615.1209	0.000918
615.8068	-0.000562
616.4929	0.000537
617.1790	0.000812
617.8652	0.000305
618.5515	0.000305
619.2379	0.001447
619.9244	-0.001027
620.6110	-0.000266
621.2977	-0.001535
621.9845	0.001024
622.6714	-0.000330
623.3584	0.002229
624.0454	0.002039
624.7326	-0.000731
625.4199	-0.000626
626.1072	0.000030
626.7947	-0.000858
627.4822	0.000622
628.1698	-0.000203
628.8576	-0.002064
629.5454	-0.000499
630.2333	-0.000287
630.9213	-0.000393
631.6094	0.001024
632.2976	-0.000456
632.9859	0.000220
633.6743	0.000199
634.3628	-0.000118
635.0514	-0.000816
635.7400	0.000559
636.4288	-0.000964
637.1177	-0.001133
637.8066	0.000834
638.4957	0.000432
639.1848	0.001130
639.8740	0.000286
640.5633	0.000393
641.2528	-0.000944
641.9423	-0.001203
642.6319	-0.001722
643.3216	-0.002370
644.0113	0.000709
644.7012	0.001373
645.3912	-0.000552
646.0812	0.000032
646.7714	-0.001972
647.4616	-0.000413
648.1520	-0.000387
648.8424	0.001101
649.5329	-0.000441
650.2236	0.000852
650.9143	0.000137
651.6051	0.001494
652.2960	0.001449
652.9870	0.000607
653.6780	-0.001667
654.3692	0.001324
655.0605	-0.000248
655.7518	0.000203
656.4433	-0.001971
657.1348	-0.001767
657.8264	-0.001577
658.5181	0.000241
659.2099	-0.000843
659.9018	-0.000097
660.5938	-0.000942
661.2859	0.000878
661.9781	-0.000437
662.6704	0.000583
663.3627	0.000009
664.0552	0.001535
664.7477	0.000598
665.4403	-0.000430
666.1330	-0.000096
666.8259	0.000684
667.5188	-0.000773
668.2117	0.001121
668.9048	0.000199
669.5980	0.000263
670.2913	-0.000837
670.9846	0.003223
671.6781	-0.000456
672.3716	0.000411
673.0652	-0.000626
673.7589	-0.000816
674.4527	0.000601
675.1466	-0.000710
675.8406	0.000897
676.5347	0.000178
677.2288	0.001066
677.9231	-0.000647
678.6174	-0.001831
679.3119	-0.000647
680.0064	-0.000626
680.7010	-0.001091
681.3957	0.000115
682.0905	0.001510
682.7854	0.001701
683.4803	-0.001471
684.1754	-0.000308
684.8705	0.000136
685.5658	-0.001366
686.2611	-0.000393
686.9565	-0.000689
687.6520	-0.000858
688.3476	-0.001070
689.0433	0.001489
689.7390	-0.002021
690.4349	-0.000837
691.1308	0.000918
691.8269	0.002546
692.5230	-0.001450
693.2192	-0.000520
693.9155	-0.001112
694.6119	0.000178
695.3083	-0.001450
696.0049	0.000030
696.7016	-0.000604
697.3983	-0.001514
698.0951	0.000157
698.7920	-0.001154
699.4890	-0.001577
700.1861	0.000664
700.8833	0.001087
701.5806	-0.000879
702.2779	-0.000351
702.9753	0.000347
703.6729	0.001087
704.3705	0.000389
705.0682	-0.000330
705.7660	0.000411
706.4638	0.000960
707.1618	-0.000583
707.8599	-0.000964
708.5580	0.000982
709.2562	0.000051
709.9545	-0.000731
710.6529	0.000601
711.3514	0.001595
712.0500	0.002356
712.7486	0.001172
713.4474	-0.000478
714.1462	-0.001366
714.8451	0.001193
715.5441	-0.001175
716.2432	-0.000287
716.9424	-0.001937
717.6416	0.000812
718.3410	-0.000626
719.0404	-0.000710
719.7399	-0.001620
720.4395	-0.000118
721.1392	-0.000901
721.8390	-0.000943
722.5388	-0.001006
723.2388	0.002272
723.9388	-0.000710
724.6389	0.001785
725.3391	0.001637
726.0394	0.001849
726.7398	0.000263
727.4403	-0.000520
728.1408	0.000389
728.8414	-0.000139
729.5421	0.000220
730.2429	-0.000160
730.9438	-0.001429
731.6448	0.000580
732.3458	0.001341
733.0470	-0.000076
733.7482	-0.000837
734.4495	-0.000710
735.1509	0.000474
735.8524	0.000326
736.5539	0.000389
737.2556	-0.000330
737.9573	0.000897
738.6591	0.000030
739.3610	0.000199
740.0630	-0.000012
740.7651	-0.001725
741.4672	0.000834
742.1695	-0.000774
742.8718	0.001151
743.5742	0.001426
744.2767	-0.000964
744.9792	-0.000012
745.6819	-0.000879
746.3846	0.001257
747.0874	-0.001027
747.7903	-0.000033
748.4933	0.000115
749.1964	0.001827
749.8995	-0.000033
750.6028	0.000749
751.3061	-0.001154
752.0095	-0.000604
752.7130	0.000728
753.4166	0.000051
754.1202	0.000093
754.8239	-0.000858
755.5278	-0.000668
756.2317	-0.000562
756.9356	-0.000203
757.6397	0.000093
758.3438	0.001172
759.0481	0.001827
759.7524	0.000368
760.4568	0.000453
761.1613	0.000093
761.8658	0.000728
762.5705	0.002420
763.2752	0.000326
763.9800	0.000009
764.6849	0.001130
765.3898	0.000495
766.0949	-0.000076
766.8000	-0.001408
767.5052	-0.000541
768.2105	-0.000160
768.9159	0.000897
769.6214	0.001235
770.3269	-0.000139
771.0325	0.001066
771.7382	-0.000351
772.4440	-0.000774
773.1499	-0.001493
773.8558	-0.001641
774.5618	0.001193
775.2679	0.000241
775.9741	0.000009
776.6804	0.000136
777.3868	-0.000330
778.0932	-0.000795
778.7997	0.000474
779.5063	0.000643
780.2130	0.002102
780.9197	-0.000033
781.6265	-0.000055
782.3335	-0.001049
783.0405	-0.001091
783.7475	0.000009
784.4547	0.000199
785.1619	-0.001260
785.8692	-0.001323
786.5766	0.000389
787.2841	-0.000456
787.9917	-0.001070
788.6993	0.000009
789.4070	-0.000583
790.1148	0.000474
790.8227	0.000411
791.5306	-0.000964
792.2387	0.001278
792.9468	0.000178
793.6550	-0.000097
794.3632	0.000537
795.0716	0.000622
795.7800	0.000643
796.4885	-0.000097
797.1971	0.001785
797.9058	0.000305
798.6145	0.000072
799.3233	-0.000816
800.0322	0.000791
800.7412	-0.000478
801.4503	0.001045
802.1594	-0.000604
802.8686	-0.001535
803.5779	0.000432
804.2873	-0.000922
804.9968	-0.001049
805.7063	-0.000604
806.4159	0.000241
807.1256	0.000622
807.8354	-0.000541
808.5452	0.000072
809.2551	-0.000266
809.9651	0.000136
810.6752	-0.001133
811.3853	0.000157
812.0956	-0.001641
812.8059	-0.000245
813.5163	-0.000520
814.2267	-0.000076
814.9373	-0.001429
815.6479	-0.000583
816.3586	0.000432
817.0694	-0.000478
817.7802	-0.000731
818.4912	0.000559
819.2022	0.001806
819.9133	-0.000012
820.6244	0.000474
821.3357	-0.001810
822.0470	-0.000795
822.7584	-0.000160
823.4698	-0.000964
824.1814	-0.000351
824.8930	-0.001471
825.6047	0.001405
826.3165	0.000855
827.0283	0.000643
827.7402	0.000389
828.4522	-0.000287
829.1643	0.001278
829.8765	-0.001450
830.5887	-0.000668
831.3010	-0.000055
832.0134	-0.000160
832.7259	-0.000287
833.4384	0.000305
834.1510	-0.000139
834.8637	-0.000372
835.5765	-0.000626
836.2893	0.001679
837.0022	-0.000499
837.7152	-0.001006
838.4283	-0.000308
839.1414	0.001024
839.8546	0.000495
840.5679	0.001912
841.2813	-0.000414
841.9947	-0.000224
842.7082	-0.000626
843.4218	0.000876
844.1355	-0.000478
844.8492	0.000559
845.5631	-0.001006
846.2770	0.000939
846.9909	0.000643
847.7050	-0.000520
848.4191	-0.002127
849.1333	0.000305
849.8475	-0.000182
850.5619	0.000601
851.2763	-0.000922
851.9908	0.000432
852.7053	-0.000266
853.4200	0.001383
854.1347	0.001151
854.8495	0.000157
855.5643	-0.000752
856.2792	-0.000351
856.9942	0.000876
857.7093	0.000707
858.4245	-0.000033
859.1397	-0.000330
859.8550	-0.000710
860.5704	0.001151
861.2858	-0.000456
862.0013	0.002525
862.7169	0.000368
863.4326	-0.000795
864.1483	-0.000012
864.8642	0.000707
865.5800	0.000220
866.2960	0.001045
867.0120	0.000432
867.7281	0.000157
868.4443	-0.000456
869.1606	0.000728
869.8769	-0.001641
870.5933	0.001087
871.3097	-0.000033
872.0263	0.000812
872.7429	-0.001091
873.4596	-0.000266
874.1763	-0.000626
874.8932	-0.001789
875.6101	-0.001958
876.3270	0.000326
877.0441	0.000284
877.7612	0.000707
878.4784	-0.000245
879.1957	0.000093
879.9130	-0.001260
880.6304	0.000474
881.3479	-0.000118
882.0654	-0.001197
882.7831	0.001045
883.5007	-0.001408
884.2185	0.001214
884.9363	0.000411
885.6542	0.000115
886.3722	0.000093
887.0903	-0.000097
887.8084	-0.000351
888.5266	-0.000245
889.2448	-0.000182
889.9632	-0.001197
890.6816	0.000305
891.4001	-0.000330
892.1186	-0.000435
892.8372	0.001024
893.5559	0.001574
894.2747	0.000474
894.9935	-0.000710
895.7124	0.000855
896.4314	-0.002042
897.1504	0.000072
897.8695	-0.001683
898.5887	-0.000858
899.3079	-0.000879
900.0272	-0.000414
900.7466	-0.000499
901.4661	0.001553
902.1856	-0.001514
902.9052	-0.001175
903.6249	-0.000626
904.3446	-0.000520
905.0644	-0.000372
905.7843	-0.001873
906.5043	-0.000224
907.2243	-0.000372
907.9444	-0.000795
908.6645	-0.001873
909.3847	-0.001429
910.1050	0.001172
910.8254	0.000749
911.5458	0.001637
912.2663	0.000939
912.9869	0.001595
913.7075	-0.000879
914.4283	0.000580
915.1490	-0.001556
915.8699	-0.001070
916.5908	0.001108
917.3118	0.000982
918.0328	-0.000055
918.7539	0.000178
919.4751	0.000072
920.1964	-0.000562
920.9177	-0.001725
921.6391	0.001510
922.3606	0.000009
923.0821	-0.000266
923.8037	-0.000076
924.5254	-0.000393
925.2471	0.000686
925.9689	0.000960
926.6908	-0.001979
927.4127	0.001172
928.1347	-0.000774
928.8568	0.000157
929.5789	-0.001450
930.3011	-0.001218
931.0234	-0.000668
931.7457	0.001151
932.4681	0.001235
933.1906	-0.000139
933.9131	0.000051
934.6358	0.001045
935.3584	0.000072
936.0812	0.000622
936.8040	-0.001789
937.5269	0.000559
938.2498	0.001003
938.9728	0.000432
939.6959	0.000812
940.4190	-0.001620
941.1422	-0.000478
941.8655	-0.000668
942.5889	0.000812
943.3123	0.000115
944.0357	0.000389
944.7593	-0.000795
945.4829	-0.000689
946.2066	-0.000520
946.9303	0.000749
947.6541	-0.000604
948.3780	0.000368
949.1019	0.000368
949.8259	-0.000922
950.5500	-0.000245
951.2741	-0.001683
951.9983	0.000580
952.7226	0.000157
953.4469	0.001849
954.1713	0.000326
954.8958	-0.000689
955.6203	0.000389
956.3449	-0.000456
957.0696	0.000495
957.7943	0.000072
958.5191	0.001574
959.2439	-0.001260
959.9688	0.001405
960.6938	0.000770
961.4189	-0.000245
962.1440	0.000009
962.8692	0.000326
963.5944	-0.000689
964.3197	-0.000541
965.0451	-0.001598
965.7705	0.000855
966.4960	-0.000541
967.2216	0.000770
967.9472	0.002420
968.6729	-0.000308
969.3987	-0.000287
970.1245	0.000241
970.8504	-0.000160
971.5763	0.000474
972.3023	0.000263
973.0284	-0.000668
973.7545	0.000072
974.4807	0.000855
975.2070	0.001320
975.9333	0.000876
976.6597	-0.000710
977.3862	0.001257
978.1127	-0.000287
978.8393	0.002272
979.5659	-0.002254
980.2926	0.001278
981.0194	0.000157
981.7462	-0.000055
982.4731	-0.001514
983.2001	0.000686
983.9271	-0.000435
984.6542	0.001912
985.3814	0.000643
986.1086	0.000812
986.8358	-0.000583
987.5632	-0.000456
988.2906	-0.000160
989.0180	-0.000372
989.7456	-0.000351
990.4732	0.000876
991.2008	-0.000499
991.9285	-0.000160
992.6563	-0.001768
993.3841	-0.000541
994.1120	-0.000985
994.8400	-0.000562
995.5680	-0.000118
996.2961	0.000389
997.0242	0.000897
997.7524	0.001045
998.4807	0.001045
999.2090	0.000136
999.9374	0.000643
1000.67	-0.000626
1001.39	-0.001218
1002.12	0.001214
1002.85	0.002631
1003.58	-0.001112
1004.31	-0.000414
1005.04	0.001299
1005.77	-0.000160
1006.5	-0.000330
1007.22	0.000537
1007.95	0.001595
1008.68	0.001320
1009.41	0.002906
1010.14	0.000559
1010.87	0.000305
1011.6	0.001997
1012.33	-0.000118
1013.06	0.001087
1013.79	0.001066
1014.52	-0.000266
1015.25	-0.000033
1015.98	0.000495
1016.71	-0.000287
1017.44	0.001637
1018.17	-0.000012
1018.9	0.001574
1019.63	-0.000943
1020.36	0.000389
1021.09	0.001489
1021.82	-0.000816
1022.55	-0.002254
1023.03	-0.004073