File: spectrum_2025-06-19_09-25-19.txt
# Wavelength (nm)	Intensity (a.u.)
197.7802	0.000243
198.3922	-0.000074
199.0044	0.000053
199.6168	-0.000053
200.2292	0.000539
200.8418	0.000962
201.4546	0.000899
202.0674	0.000793
202.6805	0.001216
203.2936	0.000560
203.9069	0.001300
204.5203	0.001533
205.1338	0.000539
205.7475	0.001152
206.3614	0.000539
206.9753	0.000899
207.5894	0.001935
208.2036	0.000624
208.8180	0.001068
209.4325	-0.000962
210.0471	0.000687
210.6618	0.000180
211.2767	0.001343
211.8918	-0.000645
212.5069	0.000455
213.1222	-0.001279
213.7376	0.000751
214.3532	0.000835
214.9689	-0.000645
215.5847	0.000053
216.2007	0.001956
216.8168	0.000011
217.4330	0.000349
218.0494	0.000159
218.6659	0.001871
219.2825	-0.000201
219.8992	0.001808
220.5161	-0.001089
221.1332	0.000687
221.7503	0.000433
222.3676	-0.000032
222.9850	0.000011
223.6026	0.001618
224.2203	0.002337
224.8381	-0.000180
225.4561	0.000581
226.0742	-0.000180
226.6924	0.000476
227.3107	0.000666
227.9292	0.001935
228.5478	0.001596
229.1666	-0.000666
229.7855	0.000497
230.4045	0.000222
231.0236	0.000476
231.6429	0.000095
232.2623	0.000264
232.8818	0.000645
233.5015	0.000835
234.1213	0.001533
234.7413	0.001744
235.3613	0.001406
235.9815	0.000730
236.6018	0.001808
237.2223	0.000412
237.8429	-0.000349
238.4636	0.002844
239.0845	0.002527
239.7055	0.001279
240.3266	0.000433
240.9478	0.000856
241.5692	0.001596
242.1907	0.000180
242.8124	0.001491
243.4341	0.001364
244.0560	0.000180
244.6781	0.000116
245.3002	0.001491
245.9225	0.001047
246.5449	0.000159
247.1675	0.001871
247.7902	-0.000370
248.4130	0.000159
249.0359	0.002146
249.6590	0.000666
250.2822	-0.000687
250.9056	0.000751
251.5290	-0.000412
252.1526	-0.000878
252.7763	0.000666
253.4002	-0.000222
254.0242	0.001406
254.6483	0.001279
255.2725	-0.000349
255.8969	0.001448
256.5214	0.000878
257.1460	0.001575
257.7708	0.000053
258.3957	0.000941
259.0207	0.001068
259.6459	0.000730
260.2711	0.000624
260.8965	0.000391
261.5221	-0.000328
262.1477	0.002189
262.7735	-0.000328
263.3995	0.000878
264.0255	-0.000264
264.6517	-0.000011
265.2780	-0.002337
265.9044	0.002146
266.5310	0.000983
267.1577	0.000645
267.7845	-0.000581
268.4114	0.002569
269.0385	-0.000391
269.6657	0.000560
270.2931	0.000539
270.9205	0.000835
271.5481	-0.000920
272.1758	0.000708
272.8037	-0.000983
273.4316	-0.000264
274.0597	-0.000920
274.6880	0.000835
275.3163	-0.000835
275.9448	-0.000476
276.5734	0.000455
277.2022	0.001216
277.8310	0.000095
278.4600	0.001787
279.0891	0.000243
279.7184	0.001406
280.3477	0.001744
280.9772	0.000856
281.6069	0.002950
282.2366	-0.000032
282.8665	0.000349
283.4965	0.000370
284.1266	-0.000476
284.7569	0.000835
285.3873	0.001343
286.0178	0.000983
286.6484	0.000751
287.2792	0.002823
287.9101	0.000476
288.5411	-0.000095
289.1723	0.000412
289.8035	0.001956
290.4349	0.001406
291.0665	0.000412
291.6981	-0.000285
292.3299	0.001152
292.9618	0.000095
293.5938	0.000159
294.2260	0.000666
294.8582	0.000391
295.4906	-0.000095
296.1232	-0.000116
296.7558	0.000137
297.3886	-0.001998
298.0215	-0.000730
298.6545	0.000222
299.2877	-0.000264
299.9210	0.001110
300.5544	0.000835
301.1879	0.000730
301.8215	-0.000137
302.4553	0.001279
303.0892	0.000560
303.7233	0.001300
304.3574	0.000095
304.9917	0.001110
305.6261	0.000137
306.2606	0.000518
306.8953	0.000137
307.5301	0.001174
308.1650	-0.000391
308.8000	0.002062
309.4351	-0.001047
310.0704	0.001300
310.7058	-0.000370
311.3413	0.002485
311.9770	-0.000243
312.6127	-0.000328
313.2486	-0.000730
313.8846	0.001343
314.5208	0.000518
315.1570	0.000645
315.7934	-0.000624
316.4299	0.000772
317.0666	-0.000624
317.7033	0.000180
318.3402	-0.000603
318.9772	-0.000518
319.6143	0.001110
320.2516	-0.000159
320.8890	-0.001787
321.5265	0.002041
322.1641	0.000285
322.8018	0.000814
323.4397	-0.000518
324.0777	-0.000180
324.7158	0.000137
325.3540	0.000476
325.9924	-0.000328
326.6308	0.001322
327.2694	0.001300
327.9082	0.002146
328.5470	0.000095
329.1860	0.000856
329.8251	-0.000307
330.4643	0.001829
331.1036	-0.000074
331.7431	0.000285
332.3826	0.000095
333.0223	0.000539
333.6622	0.000581
334.3021	0.000856
334.9422	0.001787
335.5823	0.002062
336.2227	0.000222
336.8631	0.001343
337.5036	0.001279
338.1443	0.000391
338.7851	-0.000497
339.4260	0.001596
340.0670	0.002062
340.7082	-0.000074
341.3495	-0.000772
341.9909	0.001427
342.6324	-0.000201
343.2740	0.001174
343.9158	-0.000222
344.5577	0.000983
345.1997	0.001110
345.8418	-0.000539
346.4840	0.000962
347.1264	0.000687
347.7689	0.000137
348.4115	0.001512
349.0542	0.000137
349.6971	0.000391
350.3400	0.001681
350.9831	-0.000730
351.6263	0.000835
352.2696	0.000243
352.9131	0.002611
353.5566	0.000687
354.2003	0.001174
354.8441	0.001279
355.4881	0.000603
356.1321	-0.001702
356.7763	-0.000328
357.4206	-0.000497
358.0650	0.000391
358.7095	0.001491
359.3541	-0.001385
359.9989	0.000983
360.6438	0.001723
361.2888	-0.001977
361.9339	0.000285
362.5791	0.001744
363.2245	0.000370
363.8699	0.001322
364.5155	0.000391
365.1612	0.000116
365.8071	-0.001068
366.4530	-0.000011
367.0991	0.001448
367.7453	-0.000497
368.3916	-0.000941
369.0380	-0.001406
369.6845	-0.000476
370.3312	0.001026
370.9780	0.000433
371.6249	0.002823
372.2719	-0.000666
372.9190	0.000159
373.5663	0.000793
374.2136	-0.000053
374.8611	0.000222
375.5087	-0.000264
376.1564	0.001850
376.8043	-0.000370
377.4522	0.000603
378.1003	0.001322
378.7485	0.002442
379.3968	0.001512
380.0452	-0.001364
380.6938	0.000835
381.3424	0.001047
381.9912	0.001279
382.6401	0.000560
383.2891	-0.000708
383.9382	-0.000666
384.5875	0.000307
385.2368	0.001004
385.8863	-0.000624
386.5359	-0.000137
387.1856	-0.000624
387.8355	-0.000962
388.4854	0.000285
389.1355	0.000624
389.7856	-0.000433
390.4359	-0.001174
391.0863	0.000222
391.7369	0.000835
392.3875	-0.000349
393.0383	-0.000645
393.6891	-0.000645
394.3401	-0.001322
394.9912	0.001174
395.6425	0.001385
396.2938	-0.000180
396.9453	-0.000285
397.5968	0.001195
398.2485	-0.000624
398.9003	-0.000391
399.5522	0.000581
400.2043	0.000899
400.8564	-0.000137
401.5087	0.001026
402.1610	-0.000856
402.8135	-0.000074
403.4661	0.000159
404.1189	0.000983
404.7717	-0.000455
405.4246	0.000243
406.0777	-0.000666
406.7309	0.000243
407.3842	0.000222
408.0376	0.001026
408.6911	0.000116
409.3448	-0.000011
409.9985	-0.000370
410.6524	-0.000180
411.3064	0.001808
411.9605	-0.000581
412.6147	0.001470
413.2690	-0.000011
413.9234	0.001660
414.5780	-0.000243
415.2326	0.001491
415.8874	0.000835
416.5423	0.000476
417.1973	0.000053
417.8524	0.000433
418.5077	0.000370
419.1630	-0.000899
419.8185	-0.001152
420.4741	0.001470
421.1298	-0.000412
421.7856	0.000476
422.4415	0.000243
423.0975	0.000285
423.7536	-0.000159
424.4099	0.002590
425.0663	-0.000878
425.7228	0.001744
426.3793	-0.000116
427.0361	0.000793
427.6929	0.000983
428.3498	-0.001279
429.0068	0.000687
429.6640	0.000391
430.3213	0.001089
430.9787	0.000560
431.6362	0.000581
432.2938	0.000370
432.9515	0.000645
433.6093	-0.000053
434.2673	0.002146
434.9253	-0.000011
435.5835	0.000687
436.2418	0.000835
436.9001	0.000201
437.5586	0.000730
438.2173	0.000962
438.8760	0.000603
439.5348	-0.000180
440.1938	0.001237
440.8528	-0.000074
441.5120	0.001787
442.1713	-0.000032
442.8307	0.000708
443.4902	-0.000455
444.1498	0.000053
444.8095	0.000772
445.4694	0.000539
446.1293	0.002675
446.7894	-0.000476
447.4496	-0.000074
448.1098	-0.000328
448.7702	0.000730
449.4307	-0.000370
450.0914	-0.001279
450.7521	-0.000962
451.4129	-0.001702
452.0739	0.001343
452.7349	-0.001639
453.3961	0.000180
454.0574	0.001596
454.7188	-0.000391
455.3803	0.000053
456.0419	-0.000370
456.7036	0.000497
457.3654	0.002019
458.0274	-0.001385
458.6894	0.000370
459.3516	-0.001216
460.0138	0.000032
460.6762	0.000391
461.3387	0.000412
462.0013	0.001004
462.6640	-0.000011
463.3268	0.000772
463.9897	0.001512
464.6528	0.000835
465.3159	0.000095
465.9792	0.000581
466.6425	0.000476
467.3060	0.001152
467.9696	-0.000243
468.6333	0.000899
469.2970	0.000307
469.9610	-0.000941
470.6250	0.000243
471.2891	0.000222
471.9533	-0.000476
472.6177	-0.000518
473.2821	-0.000645
473.9467	0.000793
474.6113	0.000920
475.2761	-0.000032
475.9410	-0.001681
476.6060	-0.000645
477.2711	0.008046
477.9363	-0.001237
478.6016	-0.001300
479.2670	-0.001618
479.9325	0.000687
480.5982	-0.000180
481.2639	-0.000581
481.9298	-0.000137
482.5957	0.000835
483.2618	-0.000074
483.9280	0.000941
484.5943	0.000053
485.2606	0.001533
485.9271	-0.000011
486.5937	-0.000518
487.2605	0.000687
487.9273	-0.000180
488.5942	-0.000497
489.2612	-0.000201
489.9284	-0.000011
490.5956	0.001089
491.2630	-0.000962
491.9304	-0.001639
492.5980	0.002717
493.2657	-0.001004
493.9334	-0.000962
494.6013	0.000349
495.2693	-0.000116
495.9374	-0.000941
496.6056	0.001300
497.2739	0.001026
497.9423	0.001279
498.6109	0.000476
499.2795	0.000730
499.9482	0.000941
500.6171	0.001406
501.2860	0.000053
501.9551	0.000899
502.6242	0.001491
503.2935	0.001448
503.9628	-0.001110
504.6323	0.001723
505.3019	0.000518
505.9716	-0.000159
506.6414	0.002189
507.3113	0.000497
507.9813	-0.000920
508.6514	-0.000835
509.3216	0.000307
509.9919	0.002337
510.6623	-0.000603
511.3329	0.001047
512.0035	0.000603
512.6742	-0.000751
513.3451	-0.000159
514.0160	0.001575
514.6871	-0.000476
515.3582	0.002337
516.0295	0.000011
516.7008	0.001026
517.3723	0.001914
518.0439	0.001871
518.7155	0.000899
519.3873	0.000751
520.0592	-0.000730
520.7312	-0.000011
521.4033	0.000687
522.0755	0.001258
522.7478	0.000983
523.4202	-0.001343
524.0927	0.000708
524.7653	-0.000455
525.4380	0.001068
526.1108	0.000011
526.7837	-0.000412
527.4568	0.000920
528.1299	0.000159
528.8031	-0.001787
529.4765	-0.000011
530.1499	0.001258
530.8234	0.000687
531.4971	0.000264
532.1708	0.000624
532.8447	0.000793
533.5186	-0.000370
534.1927	0.001195
534.8668	-0.000497
535.5411	0.000285
536.2155	-0.000370
536.8899	-0.000518
537.5645	0.001237
538.2392	0.000391
538.9139	0.001533
539.5888	0.000412
540.2638	-0.001300
540.9389	-0.001279
541.6140	0.000370
542.2893	0.001089
542.9647	0.002294
543.6402	0.000391
544.3158	0.000941
544.9915	0.000201
545.6673	0.001322
546.3432	-0.000730
547.0192	-0.000032
547.6953	0.001047
548.3715	0.000011
549.0478	-0.001618
549.7242	-0.000687
550.4007	-0.000497
551.0773	0.000687
551.7540	-0.001554
552.4308	-0.000666
553.1077	-0.001575
553.7847	-0.000032
554.4618	-0.000920
555.1390	-0.000962
555.8163	0.001829
556.4937	0.000687
557.1712	-0.003500
557.8488	0.001808
558.5266	0.000772
559.2044	0.001258
559.8823	-0.000011
560.5603	0.001237
561.2384	-0.000370
561.9166	0.000328
562.5949	0.000751
563.2733	0.000095
563.9519	0.000222
564.6305	0.000645
565.3092	0.000581
565.9880	0.000201
566.6669	-0.000878
567.3459	-0.000011
568.0250	0.000856
568.7043	0.000603
569.3836	0.001089
570.0630	0.001681
570.7425	-0.001935
571.4221	0.001914
572.1018	0.000455
572.7816	0.001829
573.4615	-0.000560
574.1415	0.001110
574.8216	-0.000708
575.5018	0.000539
576.1821	0.000708
576.8626	-0.001300
577.5431	-0.000772
578.2237	-0.000116
578.9044	0.000772
579.5851	0.001089
580.2660	-0.000285
580.9470	0.000497
581.6281	-0.000539
582.3093	-0.000772
582.9906	0.000243
583.6720	-0.001322
584.3535	0.000560
585.0351	-0.000856
585.7167	0.001026
586.3985	-0.000116
587.0804	-0.001258
587.7624	0.000180
588.4445	0.000772
589.1266	0.000328
589.8089	0.000476
590.4913	0.001554
591.1737	0.001068
591.8563	0.000074
592.5389	0.000560
593.2217	-0.000264
593.9046	0.002315
594.5875	-0.000687
595.2705	0.001808
595.9537	0.000687
596.6369	-0.000095
597.3203	-0.001068
598.0037	0.000708
598.6872	-0.001110
599.3709	-0.000032
600.0546	0.000518
600.7384	-0.001533
601.4223	0.001026
602.1064	0.000159
602.7905	0.000730
603.4747	0.000201
604.1590	0.000074
604.8434	-0.000053
605.5279	0.000751
606.2125	0.000137
606.8972	0.000962
607.5819	0.001300
608.2668	0.000328
608.9518	0.000201
609.6369	0.000307
610.3220	0.001047
611.0073	-0.001322
611.6927	-0.000328
612.3781	0.000328
613.0637	0.002823
613.7493	-0.000793
614.4351	0.000666
615.1209	-0.000581
615.8068	0.000518
616.4929	0.000708
617.1790	0.001026
617.8652	0.000053
618.5515	0.000116
619.2379	0.000730
619.9244	0.000222
620.6110	-0.000032
621.2977	0.000899
621.9845	0.001491
622.6714	0.000666
623.3584	0.000433
624.0454	0.000666
624.7326	0.001216
625.4199	-0.000455
626.1072	-0.000159
626.7947	-0.000180
627.4822	0.000518
628.1698	-0.000285
628.8576	0.000222
629.5454	-0.000518
630.2333	0.001808
630.9213	0.000941
631.6094	0.000349
632.2976	0.001808
632.9859	0.000074
633.6743	0.001829
634.3628	-0.000285
635.0514	-0.000645
635.7400	0.000518
636.4288	-0.000285
637.1177	0.000180
637.8066	-0.001618
638.4957	0.000581
639.1848	0.000095
639.8740	0.001353
640.5633	0.000202
641.2528	0.000688
641.9423	0.000202
642.6319	-0.000412
643.3216	0.001698
644.0113	0.000525
644.7012	-0.000995
645.3912	0.000617
646.0812	0.000793
646.7714	0.001926
647.4616	0.001478
648.1520	0.002013
648.8424	0.001015
649.5329	0.000933
650.2236	0.001423
650.9143	0.000607
651.6051	-0.000923
652.2960	0.001281
652.9870	-0.000480
653.6780	-0.000097
654.3692	0.000753
655.0605	-0.000139
655.7518	-0.001239
656.4433	0.001586
657.1348	-0.000032
657.8264	0.001659
658.5181	0.001423
659.2099	0.001011
659.9018	-0.000561
660.5938	0.000454
661.2859	0.002193
661.9781	0.001219
662.6704	-0.000968
663.3627	0.000729
664.0552	-0.000138
664.7477	0.002450
665.4403	0.002559
666.1330	-0.000158
666.8259	0.000728
667.5188	0.000856
668.2117	0.000304
668.9048	0.001258
669.5980	0.000011
670.2913	0.000095
670.9846	-0.001068
671.6781	0.000983
672.3716	-0.001279
673.0652	0.000349
673.7589	-0.001575
674.4527	0.000772
675.1466	0.001258
675.8406	0.000603
676.5347	0.001174
677.2288	-0.000835
677.9231	0.001575
678.6174	-0.000201
679.3119	0.000095
680.0064	0.000751
680.7010	0.000581
681.3957	-0.000116
682.0905	-0.000243
682.7854	0.000581
683.4803	0.001427
684.1754	0.001893
684.8705	-0.000011
685.5658	0.001575
686.2611	0.000920
686.9565	-0.000730
687.6520	0.001766
688.3476	0.000011
689.0433	-0.000581
689.7390	-0.000095
690.4349	0.000095
691.1308	0.001152
691.8269	-0.000180
692.5230	0.000920
693.2192	-0.000074
693.9155	0.000941
694.6119	0.000476
695.3083	-0.000032
696.0049	0.001047
696.7016	-0.000201
697.3983	-0.000095
698.0951	0.001131
698.7920	0.006143
699.4890	0.000560
700.1861	0.001131
700.8833	-0.000180
701.5806	0.001766
702.2779	-0.000264
702.9753	0.000243
703.6729	0.000793
704.3705	0.001026
705.0682	-0.001258
705.7660	0.001004
706.4638	0.001152
707.1618	0.001047
707.8599	-0.000730
708.5580	0.000518
709.2562	0.000941
709.9545	-0.000285
710.6529	-0.000264
711.3514	0.000222
712.0500	0.000391
712.7486	0.001279
713.4474	0.000793
714.1462	0.001195
714.8451	0.000285
715.5441	0.001364
716.2432	-0.000116
716.9424	0.000011
717.6416	0.000391
718.3410	-0.001956
719.0404	0.001195
719.7399	0.000201
720.4395	0.000730
721.1392	0.000814
721.8390	0.001914
722.5388	0.001554
723.2388	-0.000222
723.9388	-0.000011
724.6389	0.001152
725.3391	0.000751
726.0394	0.000645
726.7398	0.000730
727.4403	0.001004
728.1408	0.001026
728.8414	0.001300
729.5421	0.001300
730.2429	-0.001448
730.9438	0.001427
731.6448	0.001174
732.3458	0.000074
733.0470	0.000433
733.7482	0.000751
734.4495	0.000814
735.1509	0.001766
735.8524	-0.000433
736.5539	0.000095
737.2556	0.002252
737.9573	0.000349
738.6591	-0.000011
739.3610	0.000412
740.0630	0.000814
740.7651	0.001596
741.4672	0.000349
742.1695	-0.000159
742.8718	0.001660
743.5742	0.001110
744.2767	-0.000560
744.9792	0.000011
745.6819	0.000391
746.3846	0.000624
747.0874	0.000645
747.7903	0.001195
748.4933	0.000307
749.1964	0.001279
749.8995	-0.000222
750.6028	0.002062
751.3061	0.000074
752.0095	0.003690
752.7130	0.001850
753.4166	-0.001216
754.1202	-0.000053
754.8239	0.000074
755.5278	0.001237
756.2317	0.000222
756.9356	0.001470
757.6397	0.000476
758.3438	-0.000581
759.0481	0.000941
759.7524	0.000856
760.4568	0.000455
761.1613	0.001343
761.8658	0.000053
762.5705	0.000624
763.2752	-0.000053
763.9800	0.000581
764.6849	-0.001850
765.3898	0.000074
766.0949	-0.000137
766.8000	-0.001152
767.5052	0.001300
768.2105	0.002210
768.9159	-0.000285
769.6214	0.001195
770.3269	-0.000455
771.0325	0.000666
771.7382	-0.000539
772.4440	0.001533
773.1499	0.000412
773.8558	0.001575
774.5618	0.000899
775.2679	0.000941
775.9741	-0.000264
776.6804	0.000412
777.3868	0.000518
778.0932	0.000539
778.7997	-0.001216
779.5063	0.001152
780.2130	0.000603
780.9197	-0.000307
781.6265	0.000581
782.3335	-0.000116
783.0405	-0.001427
783.7475	0.000518
784.4547	-0.000708
785.1619	0.000307
785.8692	-0.001491
786.5766	0.002654
787.2841	-0.000708
787.9917	0.000053
788.6993	-0.002104
789.4070	0.001533
790.1148	0.000814
790.8227	0.000560
791.5306	-0.000349
792.2387	0.001554
792.9468	0.001089
793.6550	0.001702
794.3632	0.000539
795.0716	0.000116
795.7800	-0.000095
796.4885	-0.000645
797.1971	-0.000116
797.9058	0.000032
798.6145	0.000243
799.3233	-0.000285
800.0322	-0.000708
800.7412	0.000095
801.4503	-0.000307
802.1594	0.000053
802.8686	0.001110
803.5779	-0.001089
804.2873	0.001406
804.9968	0.000433
805.7063	0.001300
806.4159	-0.000011
807.1256	0.002146
807.8354	-0.001343
808.5452	0.000412
809.2551	0.002104
809.9651	-0.000053
810.6752	0.000835
811.3853	-0.000645
812.0956	0.001702
812.8059	-0.000878
813.5163	-0.000011
814.2267	0.000518
814.9373	-0.000539
815.6479	0.000835
816.3586	-0.000011
817.0694	0.001491
817.7802	-0.000243
818.4912	-0.000856
819.2022	-0.000180
819.9133	-0.001068
820.6244	-0.000455
821.3357	0.000814
822.0470	-0.001470
822.7584	0.000074
823.4698	0.001026
824.1814	-0.000476
824.8930	0.000370
825.6047	-0.000011
826.3165	-0.000412
827.0283	0.001110
827.7402	0.001322
828.4522	0.002019
829.1643	0.000899
829.8765	0.001766
830.5887	0.000095
831.3010	-0.000941
832.0134	0.001110
832.7259	-0.001279
833.4384	0.001448
834.1510	0.000201
834.8637	-0.000983
835.5765	-0.000455
836.2893	0.000878
837.0022	0.002379
837.7152	0.000941
838.4283	0.001258
839.1414	0.000624
839.8546	0.000159
840.5679	-0.000581
841.2813	0.000137
841.9947	-0.001237
842.7082	0.001237
843.4218	0.001004
844.1355	-0.001660
844.8492	0.001322
845.5631	0.000053
846.2770	-0.000391
846.9909	0.001914
847.7050	0.000243
848.4191	0.001406
849.1333	0.000687
849.8475	0.001026
850.5619	0.000624
851.2763	-0.000307
851.9908	-0.000793
852.7053	0.001470
853.4200	0.000730
854.1347	0.000687
854.8495	0.000687
855.5643	0.001554
856.2792	0.001533
856.9942	0.002294
857.7093	0.001152
858.4245	0.001744
859.1397	-0.000962
859.8550	0.000645
860.5704	-0.001131
861.2858	-0.000328
862.0013	0.001279
862.7169	0.001533
863.4326	-0.000053
864.1483	0.001575
864.8642	-0.000772
865.5800	0.000708
866.2960	0.001237
867.0120	0.001174
867.7281	0.000201
868.4443	-0.000307
869.1606	0.001089
869.8769	0.001681
870.5933	0.000159
871.3097	0.002083
872.0263	0.000730
872.7429	-0.000222
873.4596	-0.000560
874.1763	0.002548
874.8932	-0.000011
875.6101	0.000370
876.3270	0.000539
877.0441	-0.000856
877.7612	0.001681
878.4784	-0.000666
879.1957	0.001723
879.9130	-0.000032
880.6304	0.000751
881.3479	0.000349
882.0654	0.000814
882.7831	-0.000687
883.5007	-0.000349
884.2185	-0.000159
884.9363	0.001533
885.6542	-0.000370
886.3722	0.000433
887.0903	0.000116
887.8084	0.001068
888.5266	-0.001195
889.2448	0.000328
889.9632	0.001385
890.6816	-0.000962
891.4001	0.003415
892.1186	0.001216
892.8372	0.000518
893.5559	0.001195
894.2747	0.001596
894.9935	0.000307
895.7124	0.000899
896.4314	-0.000180
897.1504	0.000032
897.8695	0.001047
898.5887	-0.000328
899.3079	0.000539
900.0272	-0.000053
900.7466	0.001047
901.4661	0.001808
902.1856	0.000920
902.9052	0.001089
903.6249	-0.000349
904.3446	0.000328
905.0644	0.001026
905.7843	-0.000730
906.5043	-0.000666
907.2243	-0.000730
907.9444	-0.000095
908.6645	-0.000201
909.3847	0.002400
910.1050	0.001110
910.8254	0.000222
911.5458	0.000476
912.2663	0.002019
912.9869	0.000603
913.7075	0.001068
914.4283	-0.001131
915.1490	0.001596
915.8699	0.000814
916.5908	0.001364
917.3118	-0.000581
918.0328	0.001554
918.7539	0.000687
919.4751	0.000349
920.1964	0.000053
920.9177	-0.000518
921.6391	-0.000053
922.3606	-0.000032
923.0821	-0.000180
923.8037	0.000730
924.5254	0.002273
925.2471	0.000603
925.9689	0.000412
926.6908	0.001343
927.4127	-0.001322
928.1347	-0.000032
928.8568	-0.001174
929.5789	0.000730
930.3011	0.000137
931.0234	0.001766
931.7457	0.000328
932.4681	0.000349
933.1906	0.001004
933.9131	0.000581
934.6358	0.001089
935.3584	-0.001174
936.0812	0.000645
936.8040	0.001258
937.5269	-0.001512
938.2498	0.000708
938.9728	-0.001089
939.6959	-0.000603
940.4190	-0.000878
941.1422	0.000772
941.8655	0.001427
942.5889	-0.001152
943.3123	0.000180
944.0357	-0.000074
944.7593	0.000222
945.4829	0.000666
946.2066	0.000560
946.9303	0.000243
947.6541	-0.001068
948.3780	0.001448
949.1019	0.001639
949.8259	0.000201
950.5500	-0.000180
951.2741	0.001829
951.9983	0.002611
952.7226	-0.000581
953.4469	0.001258
954.1713	-0.000497
954.8958	-0.000539
955.6203	-0.000730
956.3449	0.002696
957.0696	0.000011
957.7943	-0.000328
958.5191	0.000539
959.2439	0.001195
959.9688	-0.000899
960.6938	0.000222
961.4189	-0.000264
962.1440	0.000074
962.8692	0.001237
963.5944	-0.000687
964.3197	-0.001808
965.0451	0.000835
965.7705	-0.000581
966.4960	0.001258
967.2216	0.000814
967.9472	-0.000835
968.6729	-0.000941
969.3987	0.000856
970.1245	-0.001026
970.8504	0.000856
971.5763	-0.000201
972.3023	0.001681
973.0284	0.000476
973.7545	0.000560
974.4807	-0.001152
975.2070	0.001258
975.9333	0.000518
976.6597	0.000603
977.3862	-0.000349
978.1127	-0.000581
978.8393	-0.000074
979.5659	0.002294
980.2926	0.000793
981.0194	-0.000730
981.7462	0.000793
982.4731	0.001174
983.2001	0.000962
983.9271	0.000497
984.6542	0.000476
985.3814	-0.001300
986.1086	0.001533
986.8358	0.000180
987.5632	0.000687
988.2906	0.001935
989.0180	-0.000011
989.7456	-0.000920
990.4732	-0.000053
991.2008	0.000666
991.9285	0.000560
992.6563	0.001026
993.3841	0.000201
994.1120	0.001089
994.8400	0.000433
995.5680	0.001406
996.2961	0.000032
997.0242	0.000730
997.7524	0.000878
998.4807	0.001744
999.2090	0.000645
999.9374	-0.000264
1000.67	0.000412
1001.39	-0.000264
1002.12	0.001343
1002.85	0.000455
1003.58	-0.002146
1004.31	0.000391
1005.04	0.000116
1005.77	0.000772
1006.5	0.001385
1007.22	-0.000349
1007.95	0.002294
1008.68	-0.000814
1009.41	0.000201
1010.14	0.000307
1010.87	0.000137
1011.6	0.001406
1012.33	0.000835
1013.06	-0.000116
1013.79	0.003309
1014.52	0.000201
1015.25	-0.000730
1015.98	-0.001427
1016.71	0.001512
1017.44	0.002337
1018.17	0.000518
1018.9	0.001406
1019.63	0.000222
1020.36	0.000328
1021.09	0.002252
1021.82	-0.002633
1022.55	-0.002104
1023.03	-0.001787