File: spectrum_2025-06-19_09-51-03.txt
# Wavelength (nm)	Intensity (a.u.)
197.7802	0.000702
198.3922	-0.000142
199.0044	0.000849
199.6168	0.000005
200.2292	0.000659
200.8418	-0.000649
201.4546	0.000575
202.0674	0.001440
202.6805	0.000786
203.2936	-0.000543
203.9069	-0.000375
204.5203	-0.000375
205.1338	0.000596
205.7475	0.000744
206.3614	0.000322
206.9753	0.000533
207.5894	0.000617
208.2036	0.000702
208.8180	0.001440
209.4325	-0.000332
210.0471	-0.000227
210.6618	0.000047
211.2767	0.000491
211.8918	-0.001155
212.5069	0.001862
213.1222	-0.000839
213.7376	0.001081
214.3532	0.000512
214.9689	0.000026
215.5847	0.000448
216.2007	0.000090
216.8168	-0.000396
217.4330	0.002052
218.0494	0.000005
218.6659	0.001482
219.2825	-0.000016
219.8992	0.000744
220.5161	0.000765
221.1332	0.001651
221.7503	0.000870
222.3676	0.000955
222.9850	0.000322
223.6026	0.000280
224.2203	0.000174
224.8381	-0.000712
225.4561	0.000491
226.0742	0.001546
226.6924	0.000828
227.3107	0.000153
227.9292	0.000702
228.5478	0.001060
229.1666	0.000111
229.7855	0.001229
230.4045	0.000702
231.0236	0.001419
231.6429	0.000153
232.2623	0.001419
232.8818	0.000638
233.5015	0.001313
234.1213	-0.000332
234.7413	-0.000058
235.3613	-0.000332
235.9815	0.000870
236.6018	0.000702
237.2223	0.000575
237.8429	0.001989
238.4636	-0.000311
239.0845	0.001292
239.7055	0.000723
240.3266	0.000575
240.9478	-0.000586
241.5692	0.000216
242.1907	0.002896
242.8124	0.000617
243.4341	0.001356
244.0560	0.000364
244.6781	0.001482
245.3002	-0.000586
245.9225	0.000301
246.5449	0.001039
247.1675	-0.000037
247.7902	0.000385
248.4130	0.000976
249.0359	-0.000058
249.6590	0.001799
250.2822	-0.000417
250.9056	-0.000185
251.5290	-0.000058
252.1526	0.000849
252.7763	0.000090
253.4002	0.000828
254.0242	-0.001176
254.6483	0.000195
255.2725	-0.000227
255.8969	0.001145
256.5214	-0.000839
257.1460	0.001124
257.7708	0.000026
258.3957	0.000533
259.0207	-0.000121
259.6459	0.000090
260.2711	-0.000269
260.8965	0.001335
261.5221	0.000069
262.1477	0.000469
262.7735	-0.001176
263.3995	0.000364
264.0255	0.001208
264.6517	0.000575
265.2780	-0.000733
265.9044	0.001166
266.5310	-0.000206
267.1577	0.001060
267.7845	-0.000100
268.4114	-0.000375
269.0385	0.000659
269.6657	0.000195
270.2931	-0.000142
270.9205	0.002010
271.5481	0.000026
272.1758	0.000765
272.8037	-0.000375
273.4316	-0.000839
274.0597	0.001313
274.6880	0.000744
275.3163	0.000934
275.9448	-0.000353
276.5734	0.001060
277.2022	0.001799
277.8310	0.000554
278.4600	0.000322
279.0891	0.001081
279.7184	0.001039
280.3477	0.001166
280.9772	0.000744
281.6069	0.000617
282.2366	0.001124
282.8665	-0.000058
283.4965	0.000237
284.1266	0.000153
284.7569	0.001039
285.3873	0.001419
286.0178	0.000406
286.6484	-0.000227
287.2792	0.000997
287.9101	0.000870
288.5411	0.000617
289.1723	0.000828
289.8035	0.001567
290.4349	0.000512
291.0665	0.000723
291.6981	-0.001514
292.3299	0.000216
292.9618	0.000934
293.5938	0.000891
294.2260	0.000617
294.8582	0.000554
295.4906	0.000870
296.1232	0.000491
296.7558	-0.000628
297.3886	0.000216
298.0215	0.000322
298.6545	-0.000037
299.2877	0.001377
299.9210	0.000216
300.5544	0.001482
301.1879	0.000322
301.8215	0.001018
302.4553	0.001482
303.0892	-0.000860
303.7233	0.001292
304.3574	0.000237
304.9917	0.001714
305.6261	0.001124
306.2606	0.000828
306.8953	-0.000058
307.5301	-0.000227
308.1650	-0.001050
308.8000	0.000723
309.4351	0.000174
310.0704	0.001419
310.7058	-0.000353
311.3413	-0.000100
311.9770	-0.000164
312.6127	0.001588
313.2486	-0.000353
313.8846	0.000828
314.5208	-0.000818
315.1570	0.000659
315.7934	0.001335
316.4299	0.000765
317.0666	0.001018
317.7033	0.000849
318.3402	0.000153
318.9772	0.000828
319.6143	0.000280
320.2516	-0.000016
320.8890	-0.001050
321.5265	0.001693
322.1641	-0.000058
322.8018	0.000005
323.4397	0.000828
324.0777	-0.000501
324.7158	0.000005
325.3540	0.001102
325.9924	-0.000775
326.6308	-0.000142
327.2694	0.000090
327.9082	0.001588
328.5470	-0.000185
329.1860	0.000406
329.8251	0.000153
330.4643	0.001060
331.1036	0.001145
331.7431	0.002010
332.3826	0.000301
333.0223	0.001398
333.6622	-0.000121
334.3021	0.000301
334.9422	0.000385
335.5823	0.000702
336.2227	-0.000185
336.8631	-0.000037
337.5036	0.001356
338.1443	0.001060
338.7851	0.000807
339.4260	0.001757
340.0670	0.000491
340.7082	-0.000227
341.3495	0.001546
341.9909	0.000638
342.6324	0.000301
343.2740	0.000491
343.9158	0.000364
344.5577	0.000448
345.1997	0.000723
345.8418	-0.000375
346.4840	-0.000438
347.1264	0.000069
347.7689	-0.001176
348.4115	0.000913
349.0542	-0.000185
349.6971	0.001503
350.3400	-0.000353
350.9831	0.001377
351.6263	0.000111
352.2696	0.001292
352.9131	0.000659
353.5566	-0.000459
354.2003	0.000828
354.8441	0.000195
355.4881	0.000828
356.1321	0.000385
356.7763	-0.001240
357.4206	0.000132
358.0650	0.001060
358.7095	0.000744
359.3541	0.001208
359.9989	0.001145
360.6438	-0.000986
361.2888	0.000976
361.9339	0.000554
362.5791	-0.000396
363.2245	-0.000016
363.8699	0.000976
364.5155	0.000174
365.1612	0.000765
365.8071	0.001419
366.4530	0.000301
367.0991	0.001039
367.7453	0.001609
368.3916	-0.000375
369.0380	0.000280
369.6845	-0.000016
370.3312	-0.000564
370.9780	-0.000016
371.6249	-0.000775
372.2719	0.000301
372.9190	0.001735
373.5663	0.000005
374.2136	0.001524
374.8611	-0.000100
375.5087	0.001356
376.1564	0.000786
376.8043	0.000343
377.4522	0.001145
378.1003	0.000153
378.7485	-0.000628
379.3968	0.001335
380.0452	0.000005
380.6938	0.001018
381.3424	0.000385
381.9912	-0.000522
382.6401	0.000026
383.2891	0.000533
383.9382	0.000132
384.5875	0.002305
385.2368	0.000448
385.8863	0.001419
386.5359	0.001039
387.1856	0.002495
387.8355	0.000322
388.4854	0.003550
389.1355	0.002432
389.7856	0.003571
390.4359	0.003423
391.0863	0.005533
391.7369	0.006736
392.3875	0.006694
393.0383	0.007453
393.6891	0.009563
394.3401	0.009015
394.9912	0.010133
395.6425	0.012011
396.2938	0.013404
396.9453	0.012011
397.5968	0.015767
398.2485	0.017075
398.9003	0.017033
399.5522	0.016547
400.2043	0.019100
400.8564	0.018467
401.5087	0.019776
402.1610	0.020472
402.8135	0.022244
403.4661	0.020008
404.1189	0.024418
404.7717	0.023932
405.4246	0.024671
406.0777	0.025008
406.7309	0.025430
407.3842	0.023109
408.0376	0.025705
408.6911	0.024734
409.3448	0.026654
409.9985	0.028215
410.6524	0.028047
411.3064	0.027899
411.9605	0.028237
412.6147	0.028511
413.2690	0.029671
413.9234	0.030051
414.5780	0.030093
415.2326	0.028363
415.8874	0.030536
416.5423	0.028722
417.1973	0.029798
417.8524	0.029819
418.5077	0.028848
419.1630	0.032984
419.8185	0.032625
420.4741	0.032034
421.1298	0.033153
421.7856	0.038807
422.4415	0.037584
423.0975	0.033722
423.7536	0.033406
424.4099	0.032351
425.0663	0.032098
425.7228	0.033744
426.3793	0.029165
427.0361	0.030874
427.6929	0.033047
428.3498	0.031148
429.0068	0.029207
429.6640	0.033870
430.3213	0.035621
430.9787	0.034756
431.6362	0.032499
432.2938	0.029059
432.9515	0.027899
433.6093	0.031676
434.2673	0.031781
434.9253	0.029123
435.5835	0.029650
436.2418	0.031549
436.9001	0.030726
437.5586	0.028996
438.2173	0.028996
438.8760	0.029144
439.5348	0.027772
440.1938	0.029376
440.8528	0.029228
441.5120	0.035643
442.1713	0.035347
442.8307	0.031401
443.4902	0.032878
444.1498	0.033427
444.8095	0.032224
445.4694	0.030937
446.1293	0.029650
446.7894	0.031465
447.4496	0.031507
448.1098	0.030093
448.7702	0.028848
449.4307	0.028258
450.0914	0.028068
450.7521	0.024502
451.4129	0.023552
452.0739	0.026127
452.7349	0.026253
453.3961	0.024861
454.0574	0.022033
454.7188	0.023152
455.3803	0.021928
456.0419	0.020725
456.7036	0.018868
457.3654	0.022244
458.0274	0.021527
458.6894	0.021822
459.3516	0.021210
460.0138	0.018932
460.6762	0.019290
461.3387	0.018995
462.0013	0.017117
462.6640	0.016125
463.3268	0.017581
463.9897	0.017708
464.6528	0.017075
465.3159	0.016526
465.9792	0.019164
466.6425	0.016357
467.3060	0.014480
467.9696	0.012939
468.6333	0.012349
469.2970	0.012285
469.9610	0.012349
470.6250	0.008762
471.2891	0.009838
471.9533	0.011505
472.6177	0.008487
473.2821	0.010175
473.9467	0.009690
474.6113	0.008065
475.2761	0.010239
475.9410	0.009163
476.6060	0.010112
477.2711	0.007749
477.9363	0.009901
478.6016	0.007221
479.2670	0.008171
479.9325	0.007559
480.5982	0.007306
481.2639	0.006335
481.9298	0.006778
482.5957	0.006103
483.2618	0.008002
483.9280	0.007791
484.5943	0.007791
485.2606	0.008150
485.9271	0.020240
486.5937	0.014037
487.2605	0.010618
487.9273	0.007031
488.5942	0.006884
489.2612	0.005850
489.9284	0.005723
490.5956	0.005175
491.2630	0.006061
491.9304	0.003191
492.5980	0.005597
493.2657	0.005681
493.9334	0.005196
494.6013	0.003634
495.2693	0.004183
495.9374	0.003592
496.6056	0.003824
497.2739	0.002833
497.9423	0.004436
498.6109	0.003972
499.2795	0.004732
499.9482	0.003845
500.6171	0.002558
501.2860	0.004457
501.9551	0.002769
502.6242	0.003993
503.2935	0.004499
503.9628	0.002558
504.6323	0.004478
505.3019	0.002833
505.9716	0.003613
506.6414	0.004141
507.3113	0.004035
507.9813	0.002284
508.6514	0.002980
509.3216	0.002516
509.9919	0.001883
510.6623	0.002748
511.3329	0.002959
512.0035	0.002790
512.6742	0.003951
513.3451	0.003761
514.0160	0.003761
514.6871	0.002411
515.3582	0.003381
516.0295	0.003719
516.7008	0.004331
517.3723	0.002474
518.0439	0.003086
518.7155	0.003972
519.3873	0.003529
520.0592	0.003423
520.7312	0.003255
521.4033	0.004373
522.0755	0.003951
522.7478	0.003571
523.4202	0.003297
524.0927	0.004331
524.7653	0.005027
525.4380	0.005365
526.1108	0.004331
526.7837	0.004478
527.4568	0.001820
528.1299	0.003867
528.8031	0.004943
529.4765	0.004352
530.1499	0.004605
530.8234	0.006166
531.4971	0.004668
532.1708	0.005280
532.8447	0.005681
533.5186	0.006377
534.1927	0.006061
534.8668	0.008888
535.5411	0.009015
536.2155	0.009669
536.8899	0.007960
537.5645	0.008741
538.2392	0.009880
538.9139	0.010682
539.5888	0.009922
540.2638	0.011061
540.9389	0.011230
541.6140	0.011357
542.2893	0.010597
542.9647	0.011905
543.6402	0.014923
544.3158	0.014079
544.9915	0.013847
545.6673	0.014606
546.3432	0.015535
547.0192	0.016885
547.6953	0.016189
548.3715	0.019607
549.0478	0.018531
549.7242	0.018425
550.4007	0.016969
551.0773	0.017898
551.7540	0.019438
552.4308	0.024270
553.1077	0.023510
553.7847	0.024291
554.4618	0.022983
555.1390	0.024861
555.8163	0.022708
556.4937	0.028110
557.1712	0.025262
557.8488	0.027034
558.5266	0.025705
559.2044	0.024375
559.8823	0.026591
560.5603	0.030916
561.2384	0.035031
561.9166	0.035516
562.5949	0.035157
563.2733	0.035917
563.9519	0.037330
564.6305	0.040179
565.3092	0.040432
565.9880	0.041276
566.6669	0.042837
567.3459	0.052733
568.0250	0.058388
568.7043	0.066638
569.3836	0.079888
570.0630	0.105124
570.7425	0.108563
571.4221	0.126160
572.1018	0.138862
572.7816	0.119724
573.4615	0.141710
574.1415	0.160404
574.8216	0.177369
575.5018	0.174794
576.1821	0.164793
576.8626	0.184521
577.5431	0.200768
578.2237	0.246617
578.9044	0.207879
579.5851	0.203321
580.2660	0.213575
580.9470	0.204840
581.6281	0.322175
582.3093	0.307342
582.9906	0.245415
583.6720	0.198764
584.3535	0.201950
585.0351	0.225054
585.7167	0.238790
586.3985	0.206718
587.0804	0.216973
587.7624	0.232628
588.4445	0.205769
589.1266	0.174731
589.8089	0.163274
590.4913	0.153716
591.1737	0.135549
591.8563	0.133017
592.5389	0.157050
593.2217	0.204735
593.9046	0.193151
594.5875	0.175638
595.2705	0.202203
595.9537	0.175069
596.6369	0.146669
597.3203	0.150108
598.0037	0.148146
598.6872	0.155045
599.3709	0.180660
600.0546	0.185408
600.7384	0.185091
601.4223	0.188762
602.1064	0.174204
602.7905	0.173043
603.4747	0.193046
604.1590	0.177200
604.8434	0.160510
605.5279	0.170807
606.2125	0.174098
606.8972	0.158463
607.5819	0.166882
608.2668	0.153188
608.9518	0.145466
609.6369	0.136541
610.3220	0.153632
611.0073	0.140613
611.6927	0.142090
612.3781	0.132215
613.0637	0.131540
613.7493	0.130253
614.4351	0.127468
615.1209	0.128924
615.8068	0.132026
616.4929	0.115737
617.1790	0.114260
617.8652	0.112192
618.5515	0.103309
619.2379	0.089447
619.9244	0.092633
620.6110	0.099406
621.2977	0.075268
621.9845	0.082188
622.6714	0.086366
623.3584	0.089257
624.0454	0.087083
624.7326	0.087801
625.4199	0.084826
626.1072	0.077230
626.7947	0.073010
627.4822	0.071955
628.1698	0.068473
628.8576	0.062080
629.5454	0.065498
630.2333	0.063009
630.9213	0.057881
631.6094	0.054717
632.2976	0.054717
632.9859	0.045158
633.6743	0.044293
634.3628	0.043681
635.0514	0.040474
635.7400	0.041972
636.4288	0.043745
637.1177	0.044610
637.8066	0.041044
638.4957	0.042753
639.1848	0.042331
639.8740	0.038535
640.5633	0.037503
641.2528	0.034811
641.9423	0.033700
642.6319	0.028836
643.3216	0.029595
644.0113	0.030504
644.7012	0.027156
645.3912	0.027808
646.0812	0.027094
646.7714	0.023906
647.4616	0.024808
648.1520	0.030535
648.8424	0.032398
649.5329	0.033760
650.2236	0.030333
650.9143	0.028932
651.6051	0.030558
652.2960	0.032736
652.9870	0.031062
653.6780	0.031982
654.3692	0.037049
655.0605	0.067004
655.7518	0.965365
656.4433	1.000000
657.1348	0.878051
657.8264	0.538843
658.5181	0.411213
659.2099	0.330225
659.9018	0.098223
660.5938	0.031446
661.2859	0.023435
661.9781	0.022670
662.6704	0.022820
663.3627	0.022204
664.0552	0.020113
664.7477	0.024534
665.4403	0.023685
666.1330	0.024353
666.8259	0.020798
667.5188	0.022181
668.2117	0.019365
668.9048	0.021717
669.5980	0.021864
670.2913	0.021696
670.9846	0.022265
671.6781	0.030663
672.3716	0.032900
673.0652	0.033533
673.7589	0.029756
674.4527	0.029566
675.1466	0.027540
675.8406	0.026696
676.5347	0.027139
677.2288	0.024017
677.9231	0.028342
678.6174	0.030431
679.3119	0.033849
680.0064	0.036571
680.7010	0.032710
681.3957	0.034946
682.0905	0.032224
682.7854	0.030431
683.4803	0.031866
684.1754	0.032351
684.8705	0.040348
685.5658	0.044673
686.2611	0.043534
686.9565	0.043112
687.6520	0.042669
688.3476	0.041086
689.0433	0.037520
689.7390	0.037288
690.4349	0.032245
691.1308	0.037436
691.8269	0.039609
692.5230	0.038027
693.2192	0.038744
693.9155	0.037584
694.6119	0.034229
695.3083	0.036297
696.0049	0.027561
696.7016	0.036887
697.3983	0.039145
698.0951	0.038217
698.7920	0.036655
699.4890	0.034482
700.1861	0.031971
700.8833	0.029587
701.5806	0.031254
702.2779	0.030579
702.9753	0.029798
703.6729	0.029144
704.3705	0.027414
705.0682	0.024924
705.7660	0.025325
706.4638	0.030452
707.1618	0.039483
707.8599	0.039145
708.5580	0.038744
709.2562	0.034208
709.9545	0.034904
710.6529	0.035178
711.3514	0.033005
712.0500	0.029503
712.7486	0.029165
713.4474	0.030916
714.1462	0.033912
714.8451	0.036149
715.5441	0.033427
716.2432	0.031676
716.9424	0.028912
717.6416	0.027160
718.3410	0.028701
719.0404	0.027730
719.7399	0.028616
720.4395	0.028321
721.1392	0.029925
721.8390	0.030157
722.5388	0.028933
723.2388	0.029671
723.9388	0.028152
724.6389	0.025894
725.3391	0.033427
726.0394	0.032562
726.7398	0.033638
727.4403	0.031845
728.1408	0.033955
728.8414	0.034651
729.5421	0.035558
730.2429	0.037689
730.9438	0.041846
731.6448	0.044251
732.3458	0.040960
733.0470	0.041571
733.7482	0.048366
734.4495	0.051910
735.1509	0.047121
735.8524	0.050497
736.5539	0.047416
737.2556	0.049336
737.9573	0.042563
738.6591	0.041150
739.3610	0.046741
740.0630	0.046108
740.7651	0.038428
741.4672	0.034334
742.1695	0.036360
742.8718	0.033406
743.5742	0.031296
744.2767	0.028912
744.9792	0.030937
745.6819	0.029038
746.3846	0.029819
747.0874	0.028237
747.7903	0.032731
748.4933	0.030579
749.1964	0.030832
749.8995	0.035896
750.6028	0.041023
751.3061	0.038681
752.0095	0.041044
752.7130	0.037647
753.4166	0.038048
754.1202	0.042226
754.8239	0.040812
755.5278	0.042500
756.2317	0.045538
756.9356	0.048703
757.6397	0.058029
758.3438	0.057607
759.0481	0.053324
759.7524	0.057924
760.4568	0.063621
761.1613	0.061785
761.8658	0.052691
762.5705	0.050201
763.2752	0.051488
763.9800	0.050011
764.6849	0.057987
765.3898	0.059358
766.0949	0.050032
766.8000	0.040559
767.5052	0.037795
768.2105	0.044357
768.9159	0.050243
769.6214	0.047880
770.3269	0.042479
771.0325	0.048830
771.7382	0.045011
772.4440	0.039989
773.1499	0.039018
773.8558	0.034988
774.5618	0.034419
775.2679	0.029207
775.9741	0.029144
776.6804	0.026949
777.3868	0.026295
778.0932	0.024607
778.7997	0.028490
779.5063	0.030874
780.2130	0.029017
780.9197	0.031655
781.6265	0.037373
782.3335	0.034144
783.0405	0.032182
783.7475	0.035854
784.4547	0.028363
785.1619	0.030093
785.8692	0.028827
786.5766	0.026992
787.2841	0.028764
787.9917	0.030663
788.6993	0.031971
789.4070	0.027646
790.1148	0.027477
790.8227	0.023932
791.5306	0.024882
792.2387	0.023236
792.9468	0.021970
793.6550	0.022223
794.3632	0.032984
795.0716	0.034777
795.7800	0.027772
796.4885	0.024185
797.1971	0.021843
797.9058	0.025198
798.6145	0.022898
799.3233	0.023658
800.0322	0.022118
800.7412	0.019987
801.4503	0.019607
802.1594	0.015324
802.8686	0.018868
803.5779	0.018742
804.2873	0.017138
804.9968	0.019079
805.7063	0.018404
806.4159	0.024544
807.1256	0.024080
807.8354	0.021042
808.5452	0.020999
809.2551	0.024755
809.9651	0.019733
810.6752	0.019966
811.3853	0.019818
812.0956	0.015788
812.8059	0.013615
813.5163	0.017033
814.2267	0.018974
814.9373	0.019396
815.6479	0.014353
816.3586	0.015218
817.0694	0.015513
817.7802	0.012560
818.4912	0.014290
819.2022	0.011863
819.9133	0.011336
820.6244	0.015724
821.3357	0.014838
822.0470	0.015788
822.7584	0.012982
823.4698	0.013446
824.1814	0.010450
824.8930	0.013361
825.6047	0.014923
826.3165	0.011019
827.0283	0.013530
827.7402	0.013277
828.4522	0.013024
829.1643	0.014670
829.8765	0.011399
830.5887	0.009247
831.3010	0.009479
832.0134	0.007348
832.7259	0.008340
833.4384	0.008804
834.1510	0.009289
834.8637	0.010196
835.5765	0.010555
836.2893	0.009331
837.0022	0.007791
837.7152	0.006251
838.4283	0.007074
839.1414	0.007179
839.8546	0.007728
840.5679	0.008129
841.2813	0.007875
841.9947	0.005597
842.7082	0.004225
843.4218	0.005175
844.1355	0.005597
844.8492	0.005934
845.5631	0.006230
846.2770	0.005660
846.9909	0.005913
847.7050	0.005365
848.4191	0.004879
849.1333	0.005470
849.8475	0.005702
850.5619	0.004626
851.2763	0.005386
851.9908	0.005428
852.7053	0.007327
853.4200	0.014290
854.1347	0.013572
854.8495	0.014416
855.5643	0.013214
856.2792	0.011758
856.9942	0.011927
857.7093	0.011251
858.4245	0.009880
859.1397	0.008973
859.8550	0.009247
860.5704	0.008846
861.2858	0.008234
862.0013	0.006609
862.7169	0.006778
863.4326	0.006947
864.1483	0.005702
864.8642	0.005512
865.5800	0.006166
866.2960	0.004267
867.0120	0.006061
867.7281	0.006567
868.4443	0.006145
869.1606	0.004710
869.8769	0.005280
870.5933	0.005343
871.3097	0.004795
872.0263	0.003993
872.7429	0.004732
873.4596	0.005322
874.1763	0.005428
874.8932	0.004415
875.6101	0.006462
876.3270	0.005217
877.0441	0.005470
877.7612	0.006420
878.4784	0.007496
879.1957	0.006905
879.9130	0.007791
880.6304	0.010049
881.3479	0.007095
882.0654	0.007074
882.7831	0.005533
883.5007	0.005576
884.2185	0.007369
884.9363	0.005322
885.6542	0.005702
886.3722	0.006251
887.0903	0.005048
887.8084	0.006272
888.5266	0.005744
889.2448	0.005892
889.9632	0.005259
890.6816	0.005702
891.4001	0.004077
892.1186	0.005871
892.8372	0.005618
893.5559	0.004162
894.2747	0.004710
894.9935	0.004900
895.7124	0.004521
896.4314	0.005955
897.1504	0.006820
897.8695	0.006019
898.5887	0.006040
899.3079	0.005090
900.0272	0.003297
900.7466	0.003845
901.4661	0.004246
902.1856	0.005154
902.9052	0.003845
903.6249	0.005787
904.3446	0.003234
905.0644	0.004795
905.7843	0.004774
906.5043	0.004225
907.2243	0.004774
907.9444	0.004626
908.6645	0.003951
909.3847	0.004099
910.1050	0.003402
910.8254	0.004985
911.5458	0.003149
912.2663	0.005386
912.9869	0.004225
913.7075	0.002727
914.4283	0.003466
915.1490	0.003993
915.8699	0.002052
916.5908	0.005217
917.3118	0.003613
918.0328	0.003001
918.7539	0.004056
919.4751	0.003740
920.1964	0.003761
920.9177	0.004267
921.6391	0.002896
922.3606	0.003719
923.0821	0.002537
923.8037	0.002347
924.5254	0.003972
925.2471	0.002221
925.9689	0.001398
926.6908	0.003191
927.4127	0.001714
928.1347	0.003339
928.8568	0.001946
929.5789	0.003191
930.3011	0.001989
931.0234	0.004521
931.7457	0.001735
932.4681	0.002432
933.1906	0.000934
933.9131	0.002157
934.6358	0.002579
935.3584	0.002073
936.0812	0.000891
936.8040	0.001356
937.5269	0.000744
938.2498	0.000111
938.9728	0.001229
939.6959	0.000491
940.4190	0.001461
941.1422	0.001735
941.8655	0.002579
942.5889	0.001398
943.3123	0.002200
944.0357	0.001714
944.7593	0.002200
945.4829	0.000554
946.2066	0.002432
946.9303	0.000195
947.6541	-0.000121
948.3780	0.001208
949.1019	0.000913
949.8259	0.001461
950.5500	0.001440
951.2741	0.001081
951.9983	0.001883
952.7226	0.000765
953.4469	0.001799
954.1713	0.000617
954.8958	0.001524
955.6203	-0.000375
956.3449	0.003487
957.0696	0.000301
957.7943	0.000448
958.5191	0.001292
959.2439	0.001398
959.9688	0.001145
960.6938	-0.000016
961.4189	0.001567
962.1440	0.001145
962.8692	0.001250
963.5944	0.000448
964.3197	0.000659
965.0451	0.000997
965.7705	0.001187
966.4960	0.002157
967.2216	0.001440
967.9472	0.000533
968.6729	0.001440
969.3987	0.001714
970.1245	0.001461
970.8504	0.000237
971.5763	0.000870
972.3023	0.001672
973.0284	0.001081
973.7545	0.001524
974.4807	-0.000543
975.2070	0.000427
975.9333	0.000364
976.6597	0.000702
977.3862	-0.000332
978.1127	0.001292
978.8393	0.001946
979.5659	0.001968
980.2926	-0.000100
981.0194	-0.000902
981.7462	-0.000649
982.4731	-0.000142
983.2001	-0.000607
983.9271	0.000744
984.6542	-0.000206
985.3814	0.000406
986.1086	0.000533
986.8358	-0.000016
987.5632	0.000406
988.2906	0.001778
989.0180	0.000448
989.7456	-0.000058
990.4732	-0.000396
991.2008	0.001271
991.9285	0.000976
992.6563	0.002179
993.3841	-0.000607
994.1120	0.000069
994.8400	0.000153
995.5680	0.001503
996.2961	0.001208
997.0242	0.000723
997.7524	0.001208
998.4807	0.000469
999.2090	0.000702
999.9374	0.000723
1000.67	0.000976
1001.39	-0.000564
1002.12	0.000870
1002.85	-0.000396
1003.58	0.000448
1004.31	-0.000227
1005.04	0.002094
1005.77	0.000301
1006.5	0.000913
1007.22	0.000111
1007.95	-0.000227
1008.68	0.001208
1009.41	0.000491
1010.14	-0.000290
1010.87	0.000976
1011.6	0.000744
1012.33	-0.001008
1013.06	0.001102
1013.79	0.000976
1014.52	0.001356
1015.25	0.000153
1015.98	-0.000332
1016.71	0.000955
1017.44	0.000659
1018.17	0.000786
1018.9	0.001166
1019.63	0.001166
1020.36	-0.000438
1021.09	0.000427
1021.82	-0.000185
1022.55	-0.000712
1023.03	0.000870