File: spectrum_2025-06-19_09-20-12.txt
# Wavelength (nm)	Intensity (a.u.)
197.7802	0.000427
198.3922	0.000384
199.0044	0.002373
199.6168	-0.000420
200.2292	-0.001244
200.8418	-0.001118
201.4546	0.001421
202.0674	-0.000504
202.6805	0.002119
203.2936	0.001167
203.9069	0.001823
204.5203	-0.000398
205.1338	0.002013
205.7475	-0.000187
206.3614	0.000278
206.9753	0.000363
207.5894	0.000321
208.2036	-0.000250
208.8180	0.001548
209.4325	0.000384
210.0471	0.000004
210.6618	-0.000589
211.2767	0.002922
211.8918	-0.000060
212.5069	0.001801
213.1222	-0.000843
213.7376	-0.000462
214.3532	0.000088
214.9689	-0.000927
215.5847	-0.000293
216.2007	0.000511
216.8168	0.000765
217.4330	0.000659
218.0494	0.000300
218.6659	0.001696
219.2825	-0.000843
219.8992	0.001103
220.5161	-0.000420
221.1332	0.000955
221.7503	-0.001244
222.3676	0.000088
222.9850	0.000977
223.6026	0.002224
224.2203	0.000194
224.8381	-0.002069
225.4561	0.000342
226.0742	-0.000377
226.6924	0.000300
227.3107	-0.000314
227.9292	-0.000145
228.5478	0.001611
229.1666	-0.000652
229.7855	-0.001350
230.4045	0.000257
231.0236	0.000384
231.6429	0.000152
232.2623	-0.000271
232.8818	0.000278
233.5015	0.000152
234.1213	-0.000166
234.7413	0.002351
235.3613	0.002288
235.9815	-0.000187
236.6018	0.000680
237.2223	-0.001942
237.8429	0.000046
238.4636	-0.000250
239.0845	-0.000927
239.7055	0.001315
240.3266	0.000321
240.9478	-0.000843
241.5692	-0.000123
242.1907	0.001357
242.8124	0.000680
243.4341	0.000363
244.0560	-0.000546
244.6781	0.000553
245.3002	-0.001181
245.9225	-0.000504
246.5449	-0.001202
247.1675	0.000596
247.7902	-0.001160
248.4130	-0.000039
249.0359	0.001251
249.6590	0.000553
250.2822	0.000194
250.9056	-0.000123
251.5290	0.000173
252.1526	-0.000314
252.7763	0.000723
253.4002	0.000850
254.0242	-0.000187
254.6483	0.000807
255.2725	-0.000229
255.8969	0.003409
256.5214	0.001463
257.1460	0.001484
257.7708	-0.000039
258.3957	0.000786
259.0207	0.000977
259.6459	0.000152
260.2711	-0.000631
260.8965	-0.000589
261.5221	-0.000229
262.1477	-0.000102
262.7735	0.000342
263.3995	0.001928
264.0255	0.000892
264.6517	0.001738
265.2780	-0.001435
265.9044	0.002732
266.5310	-0.001392
267.1577	-0.000123
267.7845	0.000215
268.4114	-0.001096
269.0385	0.000321
269.6657	0.001336
270.2931	-0.000377
270.9205	0.000088
271.5481	0.000025
272.1758	-0.000039
272.8037	-0.000314
273.4316	-0.000546
274.0597	0.000046
274.6880	-0.000589
275.3163	-0.000187
275.9448	0.001188
276.5734	0.000278
277.2022	0.000786
277.8310	-0.000758
278.4600	-0.000504
279.0891	0.000130
279.7184	0.000152
280.3477	-0.000864
280.9772	0.000257
281.6069	0.001125
282.2366	-0.001012
282.8665	0.000300
283.4965	-0.000948
284.1266	-0.001075
284.7569	-0.000483
285.3873	0.000553
286.0178	0.000257
286.6484	0.000955
287.2792	0.001146
287.9101	0.000046
288.5411	0.001294
289.1723	0.000363
289.8035	-0.001054
290.4349	0.000025
291.0665	0.001801
291.6981	0.000977
292.3299	-0.000800
292.9618	0.000553
293.5938	-0.000208
294.2260	-0.001160
294.8582	-0.000398
295.4906	0.000596
296.1232	0.000617
296.7558	0.000004
297.3886	-0.000145
298.0215	0.001442
298.6545	0.000807
299.2877	-0.001223
299.9210	0.000723
300.5544	0.000659
301.1879	-0.000335
301.8215	-0.000652
302.4553	0.000955
303.0892	-0.000314
303.7233	0.001125
304.3574	-0.000208
304.9917	0.000998
305.6261	0.001315
306.2606	0.000977
306.8953	-0.000145
307.5301	0.000553
308.1650	-0.000969
308.8000	0.001209
309.4351	-0.000991
310.0704	0.000152
310.7058	-0.000314
311.3413	-0.000123
311.9770	-0.000356
312.6127	-0.001118
313.2486	-0.000568
313.8846	-0.002281
314.5208	0.001061
315.1570	-0.000250
315.7934	0.001442
316.4299	0.000934
317.0666	-0.000377
317.7033	-0.001414
318.3402	-0.000483
318.9772	-0.000187
319.6143	-0.000779
320.2516	-0.000250
320.8890	-0.001456
321.5265	0.001801
322.1641	-0.000948
322.8018	-0.001244
323.4397	-0.001350
324.0777	0.000109
324.7158	-0.000102
325.3540	0.000786
325.9924	-0.000821
326.6308	0.001082
327.2694	-0.000398
327.9082	0.000109
328.5470	0.002330
329.1860	-0.000906
329.8251	-0.000441
330.4643	0.000850
331.1036	-0.000123
331.7431	-0.001837
332.3826	-0.001392
333.0223	0.000363
333.6622	-0.000610
334.3021	0.000786
334.9422	0.000025
335.5823	0.000448
336.2227	-0.000610
336.8631	0.000723
337.5036	0.000702
338.1443	0.000025
338.7851	-0.000779
339.4260	-0.000758
340.0670	-0.000716
340.7082	0.000004
341.3495	-0.001223
341.9909	0.001886
342.6324	-0.000018
343.2740	0.001357
343.9158	0.000342
344.5577	0.000278
345.1997	-0.000293
345.8418	0.000321
346.4840	-0.001012
347.1264	0.000617
347.7689	0.000490
348.4115	-0.000441
349.0542	-0.000420
349.6971	0.000342
350.3400	0.002119
350.9831	0.000617
351.6263	0.000088
352.2696	0.000723
352.9131	0.000130
353.5566	0.000300
354.2003	0.001378
354.8441	0.000744
355.4881	0.001569
356.1321	-0.001033
356.7763	0.000088
357.4206	0.000977
358.0650	-0.000208
358.7095	-0.000039
359.3541	-0.001350
359.9989	0.000173
360.6438	-0.000060
361.2888	0.000680
361.9339	-0.000123
362.5791	0.001971
363.2245	0.000617
363.8699	0.000532
364.5155	-0.000589
365.1612	-0.000969
365.8071	-0.000102
366.4530	-0.000631
367.0991	0.000596
367.7453	-0.001181
368.3916	0.000596
369.0380	-0.000673
369.6845	0.000427
370.3312	0.000744
370.9780	-0.000568
371.6249	0.000405
372.2719	-0.000864
372.9190	0.001759
373.5663	-0.001160
374.2136	0.000702
374.8611	-0.000208
375.5087	-0.000293
376.1564	0.001949
376.8043	-0.001773
377.4522	0.001632
378.1003	0.000448
378.7485	0.000850
379.3968	0.000786
380.0452	-0.000420
380.6938	0.000913
381.3424	0.001061
381.9912	0.000278
382.6401	-0.001139
383.2891	-0.000589
383.9382	-0.001033
384.5875	-0.000843
385.2368	-0.000123
385.8863	0.000892
386.5359	-0.001160
387.1856	-0.000694
387.8355	-0.000271
388.4854	-0.000673
389.1355	0.000723
389.7856	-0.000060
390.4359	-0.001012
391.0863	0.000342
391.7369	0.000934
392.3875	-0.001096
393.0383	-0.001646
393.6891	0.001230
394.3401	-0.001435
394.9912	-0.000420
395.6425	-0.000927
396.2938	-0.001371
396.9453	-0.001646
397.5968	0.000723
398.2485	0.000511
398.9003	0.001188
399.5522	0.000194
400.2043	-0.000187
400.8564	-0.000356
401.5087	-0.000694
402.1610	-0.002006
402.8135	-0.000250
403.4661	-0.001033
404.1189	0.000807
404.7717	-0.001202
405.4246	-0.000335
406.0777	-0.001858
406.7309	-0.000250
407.3842	0.001188
408.0376	-0.000039
408.6911	-0.000208
409.3448	0.000236
409.9985	0.001717
410.6524	-0.000462
411.3064	0.000173
411.9605	-0.000864
412.6147	0.000532
413.2690	0.000532
413.9234	0.000278
414.5780	0.000257
415.2326	0.001865
415.8874	-0.000102
416.5423	-0.000335
417.1973	0.000469
417.8524	0.000088
418.5077	0.001357
419.1630	0.000405
419.8185	-0.001054
420.4741	0.002436
421.1298	0.000025
421.7856	-0.000885
422.4415	0.000194
423.0975	-0.000123
423.7536	0.000511
424.4099	0.002055
425.0663	-0.001266
425.7228	0.001886
426.3793	0.000998
427.0361	-0.000758
427.6929	-0.000568
428.3498	-0.001308
429.0068	0.000490
429.6640	0.000152
430.3213	-0.000420
430.9787	-0.000123
431.6362	0.000490
432.2938	-0.000377
432.9515	0.000004
433.6093	0.000448
434.2673	0.001146
434.9253	-0.000800
435.5835	-0.001710
436.2418	0.000638
436.9001	-0.001266
437.5586	-0.000398
438.2173	-0.000314
438.8760	0.001632
439.5348	-0.000060
440.1938	0.000532
440.8528	0.000278
441.5120	0.001632
442.1713	-0.000293
442.8307	-0.001012
443.4902	-0.001435
444.1498	-0.001054
444.8095	0.001336
445.4694	-0.000166
446.1293	-0.000166
446.7894	-0.000673
447.4496	0.001569
448.1098	-0.000018
448.7702	0.000744
449.4307	0.000152
450.0914	-0.000208
450.7521	-0.000673
451.4129	0.000236
452.0739	0.000173
452.7349	-0.000081
453.3961	-0.000335
454.0574	0.000236
454.7188	-0.000991
455.3803	0.000257
456.0419	-0.000885
456.7036	-0.000293
457.3654	0.000384
458.0274	0.000067
458.6894	-0.000504
459.3516	-0.001435
460.0138	0.000744
460.6762	-0.001287
461.3387	-0.001794
462.0013	0.000659
462.6640	-0.000377
463.3268	0.000088
463.9897	-0.000145
464.6528	0.001505
465.3159	-0.000927
465.9792	0.000152
466.6425	-0.000293
467.3060	0.000977
467.9696	-0.000610
468.6333	0.000596
469.2970	-0.000483
469.9610	0.000680
470.6250	0.000088
471.2891	0.000046
471.9533	-0.000737
472.6177	0.000765
473.2821	0.000553
473.9467	0.000532
474.6113	-0.001667
475.2761	-0.001773
475.9410	-0.001519
476.6060	0.000744
477.2711	0.004890
477.9363	0.000553
478.6016	0.000553
479.2670	-0.001244
479.9325	-0.000462
480.5982	-0.000631
481.2639	-0.000081
481.9298	0.001019
482.5957	-0.000229
483.2618	-0.000123
483.9280	0.000088
484.5943	-0.000123
485.2606	-0.000589
485.9271	-0.001139
486.5937	0.000067
487.2605	0.001188
487.9273	0.000025
488.5942	-0.000610
489.2612	-0.000060
489.9284	-0.000568
490.5956	-0.001456
491.2630	-0.000420
491.9304	-0.000568
492.5980	0.000617
493.2657	0.000575
493.9334	-0.000969
494.6013	-0.000758
495.2693	-0.000060
495.9374	-0.001858
496.6056	0.000913
497.2739	-0.000356
497.9423	-0.000250
498.6109	-0.000462
499.2795	0.000955
499.9482	-0.001075
500.6171	0.000892
501.2860	-0.000631
501.9551	-0.000546
502.6242	-0.002112
503.2935	0.000384
503.9628	-0.001096
504.6323	0.001971
505.3019	0.000553
505.9716	0.001400
506.6414	0.000490
507.3113	-0.000694
507.9813	-0.000420
508.6514	-0.000821
509.3216	0.000363
509.9919	-0.000335
510.6623	-0.000525
511.3329	0.001167
512.0035	0.001273
512.6742	0.000807
513.3451	-0.002069
514.0160	-0.000018
514.6871	-0.000525
515.3582	0.000828
516.0295	-0.000314
516.7008	0.001463
517.3723	-0.000927
518.0439	0.000511
518.7155	0.001336
519.3873	0.001336
520.0592	-0.000356
520.7312	-0.001012
521.4033	0.000617
522.0755	0.000934
522.7478	0.000004
523.4202	-0.000631
524.0927	0.000638
524.7653	-0.001985
525.4380	-0.000906
526.1108	-0.000145
526.7837	0.000321
527.4568	-0.001541
528.1299	0.000765
528.8031	-0.000969
529.4765	0.001125
530.1499	-0.000271
530.8234	-0.001054
531.4971	0.000596
532.1708	-0.000927
532.8447	-0.000229
533.5186	0.001273
534.1927	-0.001075
534.8668	-0.001392
535.5411	-0.001075
536.2155	0.000215
536.8899	-0.001329
537.5645	0.002542
538.2392	-0.000356
538.9139	0.000553
539.5888	0.000913
540.2638	-0.000314
540.9389	-0.002408
541.6140	0.000109
542.2893	0.001315
542.9647	0.002055
543.6402	0.002034
544.3158	-0.000864
544.9915	0.000321
545.6673	0.000088
546.3432	-0.001392
547.0192	0.001357
547.6953	-0.000293
548.3715	0.001378
549.0478	-0.000166
549.7242	-0.000166
550.4007	0.000363
551.0773	0.001357
551.7540	-0.002260
552.4308	0.000955
553.1077	-0.000293
553.7847	0.000046
554.4618	-0.000504
555.1390	0.000067
555.8163	0.000723
556.4937	0.000088
557.1712	0.000046
557.8488	0.000152
558.5266	0.000511
559.2044	-0.000102
559.8823	-0.001583
560.5603	-0.000060
561.2384	-0.000335
561.9166	-0.000589
562.5949	0.000786
563.2733	-0.001562
563.9519	0.000173
564.6305	0.000955
565.3092	-0.000187
565.9880	0.000638
566.6669	-0.000293
567.3459	0.001209
568.0250	-0.000779
568.7043	0.000934
569.3836	0.000765
570.0630	0.000871
570.7425	-0.001139
571.4221	-0.000610
572.1018	-0.000737
572.7816	0.000871
573.4615	-0.001498
574.1415	0.000934
574.8216	0.000088
575.5018	0.002373
576.1821	0.000342
576.8626	0.000977
577.5431	0.000702
578.2237	0.000300
578.9044	-0.000610
579.5851	-0.001160
580.2660	-0.000123
580.9470	-0.000102
581.6281	0.000469
582.3093	0.000215
582.9906	-0.000123
583.6720	0.000871
584.3535	-0.000610
585.0351	0.001146
585.7167	-0.000568
586.3985	-0.000462
587.0804	0.000130
587.7624	0.000046
588.4445	0.000427
589.1266	-0.000398
589.8089	0.001357
590.4913	0.000723
591.1737	0.000998
591.8563	-0.000991
592.5389	0.000913
593.2217	-0.001160
593.9046	-0.001308
594.5875	-0.000927
595.2705	-0.001350
595.9537	-0.000991
596.6369	0.000109
597.3203	-0.001244
598.0037	-0.000462
598.6872	-0.000864
599.3709	0.001759
600.0546	0.000067
600.7384	0.000490
601.4223	-0.001012
602.1064	-0.000293
602.7905	0.000723
603.4747	0.001019
604.1590	-0.002365
604.8434	-0.001667
605.5279	-0.000504
606.2125	-0.001350
606.8972	-0.000568
607.5819	0.000553
608.2668	0.001653
608.9518	-0.000779
609.6369	0.000342
610.3220	0.000786
611.0073	-0.001266
611.6927	-0.001350
612.3781	0.000173
613.0637	0.000617
613.7493	-0.000250
614.4351	-0.000271
615.1209	0.000004
615.8068	0.001886
616.4929	-0.000208
617.1790	0.000638
617.8652	-0.000039
618.5515	0.000025
619.2379	0.000194
619.9244	-0.001752
620.6110	-0.001075
621.2977	-0.000102
621.9845	0.000004
622.6714	0.000109
623.3584	-0.001202
624.0454	0.000638
624.7326	0.000088
625.4199	-0.001266
626.1072	-0.001562
626.7947	-0.000187
627.4822	-0.000694
628.1698	-0.000716
628.8576	-0.001456
629.5454	-0.000145
630.2333	0.001632
630.9213	0.000511
631.6094	-0.000145
632.2976	0.000469
632.9859	-0.001604
633.6743	0.001780
634.3628	-0.000145
635.0514	0.001019
635.7400	-0.000314
636.4288	-0.000293
637.1177	0.000448
637.8066	-0.000969
638.4957	-0.000377
639.1848	-0.000398
639.8740	0.001304
640.5633	0.000728
641.2528	-0.000039
641.9423	-0.000018
642.6319	-0.000060
643.3216	0.001085
644.0113	0.000144
644.7012	-0.000980
645.3912	0.001193
646.0812	-0.001671
646.7714	0.002253
647.4616	-0.000196
648.1520	0.000356
648.8424	0.000091
649.5329	-0.000790
650.2236	-0.000882
650.9143	0.000621
651.6051	-0.002077
652.2960	0.000321
652.9870	-0.001427
653.6780	-0.001565
654.3692	-0.000973
655.0605	-0.000894
655.7518	-0.000923
656.4433	-0.000124
657.1348	-0.000060
657.8264	0.001399
658.5181	-0.001178
659.2099	-0.000593
659.9018	-0.000993
660.5938	-0.000440
661.2859	0.000682
661.9781	0.000173
662.6704	-0.002018
663.3627	0.000088
664.0552	0.000618
664.7477	-0.000144
665.4403	0.000944
666.1330	0.000551
666.8259	-0.001684
667.5188	-0.001138
668.2117	-0.001318
668.9048	-0.000420
669.5980	-0.000398
670.2913	-0.000293
670.9846	-0.000293
671.6781	0.002457
672.3716	-0.001181
673.0652	-0.000377
673.7589	-0.000885
674.4527	-0.000039
675.1466	-0.000335
675.8406	-0.000229
676.5347	-0.000864
677.2288	-0.000102
677.9231	0.001548
678.6174	-0.000821
679.3119	-0.001139
680.0064	0.000257
680.7010	-0.000610
681.3957	0.000236
682.0905	0.000871
682.7854	-0.000081
683.4803	-0.000293
684.1754	0.001273
684.8705	-0.000398
685.5658	0.000765
686.2611	-0.000123
686.9565	0.000278
687.6520	-0.000039
688.3476	0.000977
689.0433	-0.000716
689.7390	-0.000906
690.4349	-0.000483
691.1308	-0.000652
691.8269	-0.000187
692.5230	-0.000821
693.2192	-0.001562
693.9155	-0.001012
694.6119	-0.000102
695.3083	-0.001202
696.0049	-0.000589
696.7016	-0.000927
697.3983	0.000850
698.0951	0.001019
698.7920	0.005418
699.4890	-0.001689
700.1861	0.001294
700.8833	0.000152
701.5806	0.000575
702.2779	-0.000610
702.9753	-0.000018
703.6729	0.000025
704.3705	-0.000314
705.0682	-0.000610
705.7660	0.001273
706.4638	0.000257
707.1618	0.001971
707.8599	-0.000652
708.5580	-0.001985
709.2562	-0.000123
709.9545	0.000088
710.6529	-0.000716
711.3514	-0.000906
712.0500	-0.000504
712.7486	0.000765
713.4474	-0.001139
714.1462	0.000828
714.8451	-0.001435
715.5441	0.000300
716.2432	-0.000314
716.9424	-0.001562
717.6416	-0.000589
718.3410	-0.000525
719.0404	0.000659
719.7399	0.000278
720.4395	0.001019
721.1392	0.001082
721.8390	0.002753
722.5388	-0.001541
723.2388	0.000427
723.9388	0.000257
724.6389	0.000342
725.3391	0.001992
726.0394	-0.002260
726.7398	0.000977
727.4403	0.000786
728.1408	0.000723
728.8414	-0.000546
729.5421	-0.000081
730.2429	-0.000991
730.9438	-0.000504
731.6448	0.000173
732.3458	0.000363
733.0470	-0.000462
733.7482	-0.000821
734.4495	-0.001752
735.1509	0.001040
735.8524	0.000448
736.5539	0.000490
737.2556	0.002563
737.9573	-0.000398
738.6591	0.000765
739.3610	0.000109
740.0630	0.000765
740.7651	0.002542
741.4672	0.001251
742.1695	-0.000081
742.8718	0.000596
743.5742	0.000448
744.2767	0.000384
744.9792	0.001146
745.6819	-0.000610
746.3846	0.001357
747.0874	-0.001308
747.7903	0.000046
748.4933	-0.001054
749.1964	0.000765
749.8995	-0.001625
750.6028	-0.000060
751.3061	-0.000589
752.0095	0.002098
752.7130	0.000892
753.4166	0.000173
754.1202	0.000702
754.8239	0.000384
755.5278	-0.001392
756.2317	-0.000060
756.9356	0.000278
757.6397	-0.000081
758.3438	-0.001202
759.0481	0.000532
759.7524	-0.000927
760.4568	0.000257
761.1613	-0.001710
761.8658	-0.000758
762.5705	-0.000271
763.2752	-0.000060
763.9800	0.000025
764.6849	0.000236
765.3898	0.001421
766.0949	-0.001096
766.8000	-0.001794
767.5052	-0.000102
768.2105	0.001294
768.9159	0.000194
769.6214	-0.000758
770.3269	-0.000398
771.0325	-0.000271
771.7382	0.000321
772.4440	-0.000821
773.1499	-0.000589
773.8558	0.000236
774.5618	-0.000568
775.2679	0.001759
775.9741	-0.000123
776.6804	-0.000716
777.3868	-0.001921
778.0932	-0.000123
778.7997	-0.000716
779.5063	0.000807
780.2130	0.000173
780.9197	0.000532
781.6265	-0.000377
782.3335	0.001019
783.0405	0.000088
783.7475	0.000384
784.4547	-0.001139
785.1619	0.000130
785.8692	-0.000843
786.5766	-0.000208
787.2841	-0.002027
787.9917	0.002119
788.6993	-0.001837
789.4070	0.001696
790.1148	-0.000906
790.8227	0.000850
791.5306	-0.000335
792.2387	0.001167
792.9468	-0.001139
793.6550	0.001146
794.3632	0.000913
795.0716	-0.001012
795.7800	-0.000906
796.4885	0.000046
797.1971	0.001273
797.9058	-0.000716
798.6145	0.001230
799.3233	0.001230
800.0322	-0.000483
800.7412	-0.000864
801.4503	-0.000504
802.1594	-0.000800
802.8686	0.000744
803.5779	-0.000314
804.2873	-0.000864
804.9968	-0.000546
805.7063	0.000723
806.4159	-0.000843
807.1256	0.000998
807.8354	-0.000737
808.5452	-0.000779
809.2551	0.001040
809.9651	0.000004
810.6752	-0.002133
811.3853	-0.000568
812.0956	-0.001541
812.8059	-0.002556
813.5163	-0.000589
814.2267	-0.001181
814.9373	0.000300
815.6479	-0.000335
816.3586	0.000088
817.0694	0.001103
817.7802	0.001823
818.4912	0.000088
819.2022	0.001823
819.9133	-0.001012
820.6244	-0.001096
821.3357	0.000278
822.0470	-0.001414
822.7584	-0.001181
823.4698	-0.000420
824.1814	0.000532
824.8930	-0.000102
825.6047	0.000321
826.3165	-0.000166
827.0283	0.000363
827.7402	0.000427
828.4522	0.001294
829.1643	-0.000589
829.8765	0.000638
830.5887	-0.000271
831.3010	-0.000737
832.0134	-0.001012
832.7259	0.000257
833.4384	0.001548
834.1510	0.000067
834.8637	0.000278
835.5765	-0.000927
836.2893	0.000088
837.0022	0.001040
837.7152	0.001949
838.4283	0.002140
839.1414	0.000765
839.8546	0.001632
840.5679	-0.000377
841.2813	0.000025
841.9947	-0.001308
842.7082	0.001949
843.4218	0.000490
844.1355	-0.000356
844.8492	-0.001139
845.5631	0.000977
846.2770	-0.000335
846.9909	-0.000335
847.7050	0.002394
848.4191	0.001696
849.1333	-0.000568
849.8475	0.001273
850.5619	-0.002450
851.2763	-0.000166
851.9908	-0.000271
852.7053	0.000300
853.4200	0.000448
854.1347	0.001336
854.8495	-0.000102
855.5643	0.000025
856.2792	0.000955
856.9942	0.001992
857.7093	0.001167
858.4245	-0.000229
859.1397	0.000786
859.8550	-0.000398
860.5704	-0.000102
861.2858	-0.000060
862.0013	0.000025
862.7169	-0.000546
863.4326	0.000490
864.1483	0.001061
864.8642	-0.000737
865.5800	-0.000737
866.2960	0.000046
867.0120	-0.000039
867.7281	-0.000102
868.4443	0.000152
869.1606	0.000511
869.8769	0.000384
870.5933	0.000152
871.3097	0.001442
872.0263	-0.000462
872.7429	-0.000504
873.4596	-0.001689
874.1763	-0.000060
874.8932	-0.000673
875.6101	-0.000589
876.3270	-0.001202
877.0441	-0.000991
877.7612	-0.000102
878.4784	0.000278
879.1957	0.000088
879.9130	-0.000716
880.6304	-0.000060
881.3479	-0.000060
882.0654	-0.000906
882.7831	-0.001414
883.5007	0.001251
884.2185	0.000342
884.9363	0.001103
885.6542	-0.000229
886.3722	-0.000441
887.0903	0.000046
887.8084	-0.000377
888.5266	-0.002006
889.2448	-0.001477
889.9632	0.001548
890.6816	-0.000398
891.4001	0.002584
892.1186	0.000511
892.8372	0.000427
893.5559	0.000659
894.2747	0.000173
894.9935	0.001294
895.7124	-0.000039
896.4314	0.000659
897.1504	-0.000885
897.8695	0.000723
898.5887	0.000469
899.3079	-0.001794
900.0272	-0.001773
900.7466	0.000828
901.4661	-0.000462
902.1856	-0.000800
902.9052	-0.000779
903.6249	-0.000525
904.3446	0.000405
905.0644	0.000342
905.7843	-0.000039
906.5043	-0.001181
907.2243	0.000109
907.9444	-0.000758
908.6645	0.000596
909.3847	0.001949
910.1050	-0.001477
910.8254	-0.000377
911.5458	-0.002048
912.2663	0.000257
912.9869	-0.000843
913.7075	0.002140
914.4283	-0.000483
915.1490	0.000532
915.8699	0.000109
916.5908	0.000025
917.3118	-0.000758
918.0328	0.000321
918.7539	0.000004
919.4751	0.000257
920.1964	0.000427
920.9177	0.001526
921.6391	-0.000441
922.3606	0.000278
923.0821	-0.001625
923.8037	-0.000229
924.5254	-0.000398
925.2471	-0.001139
925.9689	-0.000462
926.6908	0.000871
927.4127	0.001061
928.1347	-0.001371
928.8568	-0.001033
929.5789	0.001738
930.3011	0.001759
931.0234	0.001209
931.7457	0.000490
932.4681	-0.000737
933.1906	-0.000631
933.9131	-0.001033
934.6358	-0.000758
935.3584	0.000088
936.0812	0.000109
936.8040	-0.000018
937.5269	-0.001096
938.2498	-0.000123
938.9728	0.000596
939.6959	-0.002514
940.4190	-0.001731
941.1422	-0.000123
941.8655	-0.000758
942.5889	0.000553
943.3123	-0.000737
944.0357	0.000913
944.7593	-0.000948
945.4829	-0.000293
946.2066	0.000004
946.9303	-0.000568
947.6541	-0.000525
948.3780	0.001717
949.1019	-0.000885
949.8259	-0.000779
950.5500	-0.000166
951.2741	0.000405
951.9983	0.001421
952.7226	-0.000800
953.4469	-0.001139
954.1713	0.001061
954.8958	-0.000166
955.6203	-0.001096
956.3449	-0.000568
957.0696	0.000025
957.7943	0.000977
958.5191	0.000913
959.2439	0.002076
959.9688	-0.001604
960.6938	0.001696
961.4189	-0.000483
962.1440	0.000427
962.8692	-0.001392
963.5944	-0.000906
964.3197	-0.002112
965.0451	0.001146
965.7705	-0.000568
966.4960	0.000850
967.2216	0.000892
967.9472	0.000215
968.6729	-0.001308
969.3987	0.001061
970.1245	-0.000039
970.8504	-0.000335
971.5763	0.000490
972.3023	0.001378
973.0284	-0.000758
973.7545	-0.000187
974.4807	-0.000800
975.2070	-0.000991
975.9333	0.000236
976.6597	-0.000991
977.3862	-0.000737
978.1127	-0.000420
978.8393	0.001251
979.5659	-0.000039
980.2926	-0.000610
981.0194	0.000067
981.7462	-0.000229
982.4731	0.000680
983.2001	-0.001435
983.9271	-0.001096
984.6542	-0.000208
985.3814	-0.000271
986.1086	-0.000525
986.8358	0.001907
987.5632	-0.000123
988.2906	0.000977
989.0180	0.000130
989.7456	0.000617
990.4732	-0.001667
991.2008	0.000828
991.9285	-0.001223
992.6563	0.001442
993.3841	-0.000123
994.1120	0.000130
994.8400	0.000765
995.5680	0.000321
996.2961	-0.000039
997.0242	0.000257
997.7524	0.000088
998.4807	0.001526
999.2090	0.000342
999.9374	-0.000123
1000.67	-0.001033
1001.39	-0.000314
1002.12	0.000913
1002.85	0.000553
1003.58	0.000236
1004.31	0.000004
1005.04	0.000934
1005.77	0.000109
1006.5	0.001146
1007.22	-0.000250
1007.95	0.000892
1008.68	-0.001371
1009.41	0.000321
1010.14	-0.000694
1010.87	-0.001287
1011.6	0.001463
1012.33	-0.001519
1013.06	0.000723
1013.79	0.000511
1014.52	0.000342
1015.25	-0.000123
1015.98	0.001040
1016.71	-0.000779
1017.44	0.001188
1018.17	0.000702
1018.9	-0.000123
1019.63	0.000004
1020.36	0.000702
1021.09	0.000173
1021.82	-0.003106
1022.55	-0.003085
1023.03	-0.000694