File: spectrum_2025-06-19_09-56-10.txt
# Wavelength (nm)	Intensity (a.u.)
197.7802	-0.000436
198.3922	-0.001745
199.0044	0.001548
199.6168	0.000746
200.2292	-0.000141
200.8418	-0.001555
201.4546	0.000471
202.0674	-0.001027
202.6805	0.000197
203.2936	-0.000352
203.9069	-0.000331
204.5203	-0.000436
205.1338	0.001421
205.7475	0.000556
206.3614	0.000704
206.9753	0.000683
207.5894	0.000788
208.2036	0.000176
208.8180	-0.000204
209.4325	0.000830
210.0471	0.000999
210.6618	-0.000858
211.2767	0.001147
211.8918	-0.001365
212.5069	0.000746
213.1222	0.000598
213.7376	0.000049
214.3532	0.000429
214.9689	0.000091
215.5847	-0.000858
216.2007	-0.000985
216.8168	-0.000457
217.4330	0.001358
218.0494	-0.000267
218.6659	0.000155
219.2825	0.000345
219.8992	0.000450
220.5161	0.000619
221.1332	0.001316
221.7503	-0.000099
222.3676	-0.000690
222.9850	0.000661
223.6026	0.000281
224.2203	-0.000500
224.8381	0.001147
225.4561	-0.000711
226.0742	0.000260
226.6924	-0.001112
227.3107	0.001907
227.9292	0.000155
228.5478	0.001295
229.1666	-0.001006
229.7855	0.000683
230.4045	-0.000204
231.0236	-0.000035
231.6429	-0.000837
232.2623	0.000788
232.8818	-0.000436
233.5015	0.000514
234.1213	-0.000436
234.7413	0.000134
235.3613	-0.000901
235.9815	0.001400
236.6018	0.000091
237.2223	0.000493
237.8429	0.000176
238.4636	0.001442
239.0845	0.000577
239.7055	-0.001112
240.3266	-0.000753
240.9478	-0.000732
241.5692	-0.000267
242.1907	0.000873
242.8124	-0.001260
243.4341	-0.000626
244.0560	0.000303
244.6781	0.001274
245.3002	0.001506
245.9225	0.000366
246.5449	-0.001027
247.1675	0.000324
247.7902	0.000007
248.4130	0.000324
249.0359	-0.000964
249.6590	0.001400
250.2822	0.000281
250.9056	-0.000310
251.5290	0.000725
252.1526	0.000535
252.7763	0.000239
253.4002	-0.000056
254.0242	0.000197
254.6483	-0.000647
255.2725	-0.000310
255.8969	0.000809
256.5214	-0.000162
257.1460	0.000788
257.7708	-0.000415
258.3957	0.000197
259.0207	0.000535
259.6459	0.001063
260.2711	-0.001196
260.8965	-0.000225
261.5221	0.000049
262.1477	-0.000099
262.7735	-0.000077
263.3995	0.001231
264.0255	0.000493
264.6517	-0.000225
265.2780	0.000915
265.9044	0.000007
266.5310	0.000408
267.1577	0.001126
267.7845	-0.000542
268.4114	0.000577
269.0385	0.000239
269.6657	-0.000183
270.2931	-0.000478
270.9205	0.000661
271.5481	-0.000373
272.1758	0.000049
272.8037	0.000049
273.4316	0.000471
274.0597	0.000429
274.6880	-0.000711
275.3163	0.000007
275.9448	0.000683
276.5734	0.000324
277.2022	0.001084
277.8310	-0.000310
278.4600	-0.000563
279.0891	-0.000985
279.7184	-0.000436
280.3477	0.000366
280.9772	-0.001112
281.6069	-0.000373
282.2366	-0.000795
282.8665	-0.000626
283.4965	0.000577
284.1266	-0.000267
284.7569	0.000894
285.3873	0.000619
286.0178	0.001506
286.6484	0.000197
287.2792	0.000830
287.9101	0.000514
288.5411	0.000704
289.1723	-0.001618
289.8035	0.001126
290.4349	0.000387
291.0665	-0.001175
291.6981	0.000661
292.3299	0.000324
292.9618	-0.000352
293.5938	0.001611
294.2260	0.000788
294.8582	0.001717
295.4906	0.000260
296.1232	-0.000331
296.7558	-0.000500
297.3886	0.000408
298.0215	-0.001745
298.6545	-0.000943
299.2877	-0.001407
299.9210	0.001084
300.5544	0.000070
301.1879	-0.000035
301.8215	-0.001471
302.4553	0.000324
303.0892	0.000028
303.7233	0.000661
304.3574	-0.001027
304.9917	0.000197
305.6261	0.000091
306.2606	-0.000373
306.8953	0.000176
307.5301	-0.001281
308.1650	-0.000225
308.8000	0.001231
309.4351	-0.000521
310.0704	-0.000077
310.7058	0.000176
311.3413	-0.000310
311.9770	-0.001238
312.6127	0.000661
313.2486	-0.000035
313.8846	-0.000310
314.5208	-0.000141
315.1570	0.000197
315.7934	0.000176
316.4299	0.000197
317.0666	-0.000626
317.7033	0.000640
318.3402	-0.000858
318.9772	-0.000964
319.6143	-0.000943
320.2516	-0.001154
320.8890	-0.000415
321.5265	-0.000500
322.1641	-0.000985
322.8018	0.001675
323.4397	0.000408
324.0777	0.000345
324.7158	-0.000246
325.3540	-0.000394
325.9924	0.000176
326.6308	0.000535
327.2694	-0.000099
327.9082	-0.001133
328.5470	-0.000690
329.1860	-0.000288
329.8251	0.000197
330.4643	0.000197
331.1036	0.000070
331.7431	-0.000035
332.3826	0.000999
333.0223	-0.000288
333.6622	-0.000584
334.3021	0.000028
334.9422	-0.000647
335.5823	0.002709
336.2227	-0.001091
336.8631	0.000577
337.5036	-0.000478
338.1443	0.001717
338.7851	-0.000774
339.4260	-0.000352
340.0670	0.000281
340.7082	-0.000267
341.3495	0.000661
341.9909	-0.000478
342.6324	-0.000099
343.2740	0.000746
343.9158	-0.000774
344.5577	-0.000183
345.1997	-0.000795
345.8418	0.000894
346.4840	0.000091
347.1264	0.000091
347.7689	-0.000014
348.4115	0.001274
349.0542	-0.000162
349.6971	0.000619
350.3400	-0.000183
350.9831	0.000091
351.6263	-0.000352
352.2696	0.000260
352.9131	-0.000795
353.5566	-0.000985
354.2003	0.000239
354.8441	0.000303
355.4881	0.000281
356.1321	0.001274
356.7763	0.000239
357.4206	-0.000014
358.0650	-0.000120
358.7095	0.001485
359.3541	-0.000267
359.9989	-0.000816
360.6438	-0.000901
361.2888	-0.000795
361.9339	-0.000056
362.5791	0.000535
363.2245	0.001274
363.8699	0.000957
364.5155	0.000155
365.1612	0.001970
365.8071	-0.001281
366.4530	-0.000668
367.0991	0.000070
367.7453	-0.000099
368.3916	-0.000373
369.0380	-0.000246
369.6845	0.000197
370.3312	0.000091
370.9780	0.000007
371.6249	0.001527
372.2719	0.001675
372.9190	0.000514
373.5663	-0.000415
374.2136	0.000746
374.8611	0.000999
375.5087	0.000661
376.1564	-0.000542
376.8043	0.001358
377.4522	0.000704
378.1003	0.000577
378.7485	0.000514
379.3968	0.001717
380.0452	0.001041
380.6938	0.000281
381.3424	-0.000816
381.9912	-0.000225
382.6401	0.000197
383.2891	0.000514
383.9382	-0.000922
384.5875	-0.000035
385.2368	0.001548
385.8863	0.000598
386.5359	0.002540
387.1856	0.000535
387.8355	0.001337
388.4854	0.001632
389.1355	0.001611
389.7856	0.003680
390.4359	0.003701
391.0863	0.003406
391.7369	0.004419
392.3875	0.006994
393.0383	0.008282
393.6891	0.006488
394.3401	0.008219
394.9912	0.008092
395.6425	0.011237
396.2938	0.010752
396.9453	0.015354
397.5968	0.014488
398.2485	0.015902
398.9003	0.018372
399.5522	0.019153
400.2043	0.018773
400.8564	0.019364
401.5087	0.019660
402.1610	0.018837
402.8135	0.020694
403.4661	0.020736
404.1189	0.022151
404.7717	0.024008
405.4246	0.027259
406.0777	0.023797
406.7309	0.026035
407.3842	0.024811
408.0376	0.025866
408.6911	0.028378
409.3448	0.030257
409.9985	0.027808
410.6524	0.024747
411.3064	0.026309
411.9605	0.028927
412.6147	0.027808
413.2690	0.028505
413.9234	0.029940
414.5780	0.028357
415.2326	0.030531
415.8874	0.029560
416.5423	0.027660
417.1973	0.028378
417.8524	0.028040
418.5077	0.029961
419.1630	0.030468
419.8185	0.029307
420.4741	0.033465
421.1298	0.033170
421.7856	0.036020
422.4415	0.036210
423.0975	0.036378
423.7536	0.034141
424.4099	0.033951
425.0663	0.033698
425.7228	0.031566
426.3793	0.030742
427.0361	0.030067
427.6929	0.031988
428.3498	0.031333
429.0068	0.030383
429.6640	0.034732
430.3213	0.036400
430.9787	0.036188
431.6362	0.032515
432.2938	0.030383
432.9515	0.028906
433.6093	0.031650
434.2673	0.031017
434.9253	0.030151
435.5835	0.029455
436.2418	0.030489
436.9001	0.028779
437.5586	0.029581
438.2173	0.029856
438.8760	0.032790
439.5348	0.031207
440.1938	0.029771
440.8528	0.031164
441.5120	0.035999
442.1713	0.034922
442.8307	0.031523
443.4902	0.033212
444.1498	0.032663
444.8095	0.030911
445.4694	0.031967
446.1293	0.029729
446.7894	0.031164
447.4496	0.028125
448.1098	0.030595
448.7702	0.026689
449.4307	0.028420
450.0914	0.027407
450.7521	0.028378
451.4129	0.025570
452.0739	0.024979
452.7349	0.024557
453.3961	0.024578
454.0574	0.023628
454.7188	0.019470
455.3803	0.022531
456.0419	0.021180
456.7036	0.020462
457.3654	0.020736
458.0274	0.021665
458.6894	0.021834
459.3516	0.022193
460.0138	0.021539
460.6762	0.018583
461.3387	0.019533
462.0013	0.018457
462.6640	0.016325
463.3268	0.016409
463.9897	0.018773
464.6528	0.017464
465.3159	0.017000
465.9792	0.016515
466.6425	0.014657
467.3060	0.013981
467.9696	0.013074
468.6333	0.014530
469.2970	0.011322
469.9610	0.010688
470.6250	0.009781
471.2891	0.009802
471.9533	0.009886
472.6177	0.010604
473.2821	0.009485
473.9467	0.009907
474.6113	0.008873
475.2761	0.009401
475.9410	0.008789
476.6060	0.009443
477.2711	0.008219
477.9363	0.009612
478.6016	0.008599
479.2670	0.007501
479.9325	0.007775
480.5982	0.007902
481.2639	0.008071
481.9298	0.009654
482.5957	0.005664
483.2618	0.007881
483.9280	0.007248
484.5943	0.007163
485.2606	0.006551
485.9271	0.020863
486.5937	0.014277
487.2605	0.009527
487.9273	0.004672
488.5942	0.005052
489.2612	0.004334
489.9284	0.005327
490.5956	0.004440
491.2630	0.004968
491.9304	0.004229
492.5980	0.005749
493.2657	0.003659
493.9334	0.004567
494.6013	0.003659
495.2693	0.004989
495.9374	0.003976
496.6056	0.004313
497.2739	0.003807
497.9423	0.003807
498.6109	0.003596
499.2795	0.004102
499.9482	0.003427
500.6171	0.003300
501.2860	0.003026
501.9551	0.001886
502.6242	0.003617
503.2935	0.002646
503.9628	0.002561
504.6323	0.003638
505.3019	0.002498
505.9716	0.003954
506.6414	0.004398
507.3113	0.002878
507.9813	0.002962
508.6514	0.003089
509.3216	0.002287
509.9919	0.002730
510.6623	0.004144
511.3329	0.003321
512.0035	0.001548
512.6742	0.001210
513.3451	0.002836
514.0160	0.003342
514.6871	0.001590
515.3582	0.002878
516.0295	0.002772
516.7008	0.001844
517.3723	0.001780
518.0439	0.004461
518.7155	0.001590
519.3873	0.001126
520.0592	0.001949
520.7312	0.000767
521.4033	0.001801
522.0755	0.002350
522.7478	0.004271
523.4202	0.002160
524.0927	0.004503
524.7653	0.004271
525.4380	0.005327
526.1108	0.004250
526.7837	0.003005
527.4568	0.003110
528.1299	0.002983
528.8031	0.004123
529.4765	0.005094
530.1499	0.004039
530.8234	0.004926
531.4971	0.005517
532.1708	0.004271
532.8447	0.005981
533.5186	0.006593
534.1927	0.006445
534.8668	0.006699
535.5411	0.008683
536.2155	0.008641
536.8899	0.008007
537.5645	0.007923
538.2392	0.007585
538.9139	0.010857
539.5888	0.009295
540.2638	0.009823
540.9389	0.011469
541.6140	0.012525
542.2893	0.013411
542.9647	0.012652
543.6402	0.014931
544.3158	0.014277
544.9915	0.015354
545.6673	0.013517
546.3432	0.014340
547.0192	0.015480
547.6953	0.017507
548.3715	0.019934
549.0478	0.020399
549.7242	0.019322
550.4007	0.018900
551.0773	0.018203
551.7540	0.019174
552.4308	0.023058
553.1077	0.022489
553.7847	0.023502
554.4618	0.022636
555.1390	0.026035
555.8163	0.027787
556.4937	0.029286
557.1712	0.025739
557.8488	0.028294
558.5266	0.024916
559.2044	0.025718
559.8823	0.027618
560.5603	0.032431
561.2384	0.035809
561.9166	0.036526
562.5949	0.034563
563.2733	0.034099
563.9519	0.037328
564.6305	0.040115
565.3092	0.039840
565.9880	0.039650
566.6669	0.043725
567.3459	0.050458
568.0250	0.058438
568.7043	0.064559
569.3836	0.078386
570.0630	0.100340
570.7425	0.107897
571.4221	0.127254
572.1018	0.141503
572.7816	0.122357
573.4615	0.140743
574.1415	0.161620
574.8216	0.174413
575.5018	0.182793
576.1821	0.164301
576.8626	0.185368
577.5431	0.200546
578.2237	0.240295
578.9044	0.201791
579.5851	0.207195
580.2660	0.209792
580.9470	0.213718
581.6281	0.321714
582.3093	0.313228
582.9906	0.247071
583.6720	0.200419
584.3535	0.203691
585.0351	0.228136
585.7167	0.237635
586.3985	0.207618
587.0804	0.216990
587.7624	0.235018
588.4445	0.202805
589.1266	0.180767
589.8089	0.163246
590.4913	0.152121
591.1737	0.133756
591.8563	0.133650
592.5389	0.154232
593.2217	0.207892
593.9046	0.194973
594.5875	0.172787
595.2705	0.202045
595.9537	0.174793
596.6369	0.146401
597.3203	0.152501
598.0037	0.147414
598.6872	0.158602
599.3709	0.182814
600.0546	0.181484
600.7384	0.185094
601.4223	0.188366
602.1064	0.169937
602.7905	0.173906
603.4747	0.188577
604.1590	0.179901
604.8434	0.160565
605.5279	0.166855
606.2125	0.173315
606.8972	0.154232
607.5819	0.160966
608.2668	0.152881
608.9518	0.142179
609.6369	0.134769
610.3220	0.152142
611.0073	0.141735
611.6927	0.141039
612.3781	0.129133
613.0637	0.132933
613.7493	0.128985
614.4351	0.127170
615.1209	0.124637
615.8068	0.137408
616.4929	0.115412
617.1790	0.109987
617.8652	0.110641
618.5515	0.102282
619.2379	0.091178
619.9244	0.096414
620.6110	0.094661
621.2977	0.074586
621.9845	0.080159
622.6714	0.082692
623.3584	0.088877
624.0454	0.087041
624.7326	0.092973
625.4199	0.082988
626.1072	0.077668
626.7947	0.076170
627.4822	0.073299
628.1698	0.064116
628.8576	0.058332
629.5454	0.064158
630.2333	0.060675
630.9213	0.056728
631.6094	0.052612
632.2976	0.051324
632.9859	0.044907
633.6743	0.044189
634.3628	0.043429
635.0514	0.042099
635.7400	0.042500
636.4288	0.044632
637.1177	0.045054
637.8066	0.041740
638.4957	0.042416
639.1848	0.042141
639.8740	0.039214
640.5633	0.038650
641.2528	0.036817
641.9423	0.031044
642.6319	0.030747
643.3216	0.032719
644.0113	0.030753
644.7012	0.028487
645.3912	0.027868
646.0812	0.026618
646.7714	0.025475
647.4616	0.025243
648.1520	0.029102
648.8424	0.032982
649.5329	0.032515
650.2236	0.030622
650.9143	0.028395
651.6051	0.027460
652.2960	0.031189
652.9870	0.031440
653.6780	0.032449
654.3692	0.033489
655.0605	0.065885
655.7518	0.970396
656.4433	1.000000
657.1348	0.873034
657.8264	0.537764
658.5181	0.416057
659.2099	0.334289
659.9018	0.097107
660.5938	0.031610
661.2859	0.025648
661.9781	0.023677
662.6704	0.022556
663.3627	0.022153
664.0552	0.020844
664.7477	0.021860
665.4403	0.024302
666.1330	0.023442
666.8259	0.021167
667.5188	0.020506
668.2117	0.020088
668.9048	0.022024
669.5980	0.021961
670.2913	0.021813
670.9846	0.020335
671.6781	0.029201
672.3716	0.034373
673.0652	0.032938
673.7589	0.030489
674.4527	0.027449
675.1466	0.028251
675.8406	0.026373
676.5347	0.024768
677.2288	0.023375
677.9231	0.028842
678.6174	0.028716
679.3119	0.032030
680.0064	0.034584
680.7010	0.035471
681.3957	0.035471
682.0905	0.032494
682.7854	0.031101
683.4803	0.031650
684.1754	0.032178
684.8705	0.038827
685.5658	0.044696
686.2611	0.045688
686.9565	0.041972
687.6520	0.043387
688.3476	0.040685
689.0433	0.036716
689.7390	0.037350
690.4349	0.035154
691.1308	0.037856
691.8269	0.038616
692.5230	0.039798
693.2192	0.038511
693.9155	0.037054
694.6119	0.034183
695.3083	0.035492
696.0049	0.029370
696.7016	0.035386
697.3983	0.037223
698.0951	0.037117
698.7920	0.037244
699.4890	0.035851
700.1861	0.032727
700.8833	0.029708
701.5806	0.029771
702.2779	0.029898
702.9753	0.028864
703.6729	0.027365
704.3705	0.027323
705.0682	0.023861
705.7660	0.023481
706.4638	0.030658
707.1618	0.037160
707.8599	0.037307
708.5580	0.038194
709.2562	0.035407
709.9545	0.032621
710.6529	0.034690
711.3514	0.032431
712.0500	0.028800
712.7486	0.028779
713.4474	0.031291
714.1462	0.034436
714.8451	0.034035
715.5441	0.033655
716.2432	0.031143
716.9424	0.030468
717.6416	0.026373
718.3410	0.030341
719.0404	0.029518
719.7399	0.028927
720.4395	0.028674
721.1392	0.029539
721.8390	0.031122
722.5388	0.030974
723.2388	0.026605
723.9388	0.030974
724.6389	0.026837
725.3391	0.033064
726.0394	0.033149
726.7398	0.033508
727.4403	0.032389
728.1408	0.033655
728.8414	0.033550
729.5421	0.036632
730.2429	0.036484
730.9438	0.040875
731.6448	0.043788
732.3458	0.042331
733.0470	0.044189
733.7482	0.043915
734.4495	0.050163
735.1509	0.050078
735.8524	0.047355
736.5539	0.045941
737.2556	0.047946
737.9573	0.044991
738.6591	0.040854
739.3610	0.046321
740.0630	0.044147
740.7651	0.039756
741.4672	0.035091
742.1695	0.038236
742.8718	0.035914
743.5742	0.031903
744.2767	0.030869
744.9792	0.031629
745.6819	0.029328
746.3846	0.029011
747.0874	0.031566
747.7903	0.031143
748.4933	0.028758
749.1964	0.028188
749.8995	0.037307
750.6028	0.041276
751.3061	0.039292
752.0095	0.040600
752.7130	0.037497
753.4166	0.038004
754.1202	0.041044
754.8239	0.039313
755.5278	0.042310
756.2317	0.045350
756.9356	0.050860
757.6397	0.059852
758.3438	0.058016
759.0481	0.054913
759.7524	0.058797
760.4568	0.063631
761.1613	0.061689
761.8658	0.051978
762.5705	0.048643
763.2752	0.051092
763.9800	0.049698
764.6849	0.058163
765.3898	0.057213
766.0949	0.051049
766.8000	0.041086
767.5052	0.036758
768.2105	0.043429
768.9159	0.047292
769.6214	0.049783
770.3269	0.045899
771.0325	0.047841
771.7382	0.044949
772.4440	0.040030
773.1499	0.039904
773.8558	0.038595
774.5618	0.033698
775.2679	0.032030
775.9741	0.026921
776.6804	0.027449
777.3868	0.025296
778.0932	0.024262
778.7997	0.027280
779.5063	0.031249
780.2130	0.029412
780.9197	0.031164
781.6265	0.035006
782.3335	0.033761
783.0405	0.033254
783.7475	0.034289
784.4547	0.031650
785.1619	0.030595
785.8692	0.027006
786.5766	0.028441
787.2841	0.027491
787.9917	0.029771
788.6993	0.030658
789.4070	0.030383
790.1148	0.026162
790.8227	0.024431
791.5306	0.024135
792.2387	0.023671
792.9468	0.022489
793.6550	0.023903
794.3632	0.031059
795.0716	0.034035
795.7800	0.029286
796.4885	0.023966
797.1971	0.020673
797.9058	0.024008
798.6145	0.023270
799.3233	0.022826
800.0322	0.021222
800.7412	0.020758
801.4503	0.018963
802.1594	0.019111
802.8686	0.016451
803.5779	0.018098
804.2873	0.016325
804.9968	0.016029
805.7063	0.015902
806.4159	0.023164
807.1256	0.023291
807.8354	0.023164
808.5452	0.022974
809.2551	0.022531
809.9651	0.019491
810.6752	0.018098
811.3853	0.020230
812.0956	0.018351
812.8059	0.013834
813.5163	0.015607
814.2267	0.019027
814.9373	0.016261
815.6479	0.015881
816.3586	0.014762
817.0694	0.014952
817.7802	0.015121
818.4912	0.013855
819.2022	0.013749
819.9133	0.012630
820.6244	0.014847
821.3357	0.014615
822.0470	0.014298
822.7584	0.012082
823.4698	0.013644
824.1814	0.012229
824.8930	0.010709
825.6047	0.013960
826.3165	0.011153
827.0283	0.013981
827.7402	0.013095
828.4522	0.012863
829.1643	0.014024
829.8765	0.012356
830.5887	0.010646
831.3010	0.009717
832.0134	0.007142
832.7259	0.008577
833.4384	0.009844
834.1510	0.009211
834.8637	0.010351
835.5765	0.009274
836.2893	0.008261
837.0022	0.007353
837.7152	0.008345
838.4283	0.006994
839.1414	0.006741
839.8546	0.008176
840.5679	0.006910
841.2813	0.007712
841.9947	0.004778
842.7082	0.007121
843.4218	0.005116
844.1355	0.005284
844.8492	0.005664
845.5631	0.005664
846.2770	0.004081
846.9909	0.005073
847.7050	0.005369
848.4191	0.004250
849.1333	0.004482
849.8475	0.004313
850.5619	0.003638
851.2763	0.003807
851.9908	0.004356
852.7053	0.009443
853.4200	0.013032
854.1347	0.013876
854.8495	0.012272
855.5643	0.012293
856.2792	0.012103
856.9942	0.011596
857.7093	0.010709
858.4245	0.009527
859.1397	0.008261
859.8550	0.009506
860.5704	0.007839
861.2858	0.004609
862.0013	0.007881
862.7169	0.006952
863.4326	0.006994
864.1483	0.007459
864.8642	0.004714
865.5800	0.005939
866.2960	0.004820
867.0120	0.005664
867.7281	0.004567
868.4443	0.006129
869.1606	0.002815
869.8769	0.005707
870.5933	0.005601
871.3097	0.006593
872.0263	0.005305
872.7429	0.004630
873.4596	0.006889
874.1763	0.004503
874.8932	0.005495
875.6101	0.005580
876.3270	0.004482
877.0441	0.006277
877.7612	0.006150
878.4784	0.006192
879.1957	0.006994
879.9130	0.007015
880.6304	0.008810
881.3479	0.008873
882.0654	0.007712
882.7831	0.005981
883.5007	0.005643
884.2185	0.005812
884.9363	0.006551
885.6542	0.006298
886.3722	0.007712
887.0903	0.005517
887.8084	0.006319
888.5266	0.005559
889.2448	0.006382
889.9632	0.004757
890.6816	0.004841
891.4001	0.003701
892.1186	0.003828
892.8372	0.002709
893.5559	0.005031
894.2747	0.004292
894.9935	0.003976
895.7124	0.005137
896.4314	0.003743
897.1504	0.004778
897.8695	0.005517
898.5887	0.004883
899.3079	0.003279
900.0272	0.004166
900.7466	0.004313
901.4661	0.004208
902.1856	0.004187
902.9052	0.002730
903.6249	0.003954
904.3446	0.003469
905.0644	0.005875
905.7843	0.004567
906.5043	0.004271
907.2243	0.004567
907.9444	0.003976
908.6645	0.003532
909.3847	0.002498
910.1050	0.004039
910.8254	0.001844
911.5458	0.003870
912.2663	0.003068
912.9869	0.004377
913.7075	0.004693
914.4283	0.002477
915.1490	0.001949
915.8699	0.002709
916.5908	0.004567
917.3118	0.004588
918.0328	0.003511
918.7539	0.002603
919.4751	0.003575
920.1964	0.003807
920.9177	0.004799
921.6391	0.002245
922.3606	0.002857
923.0821	0.003638
923.8037	0.001632
924.5254	0.002730
925.2471	0.001928
925.9689	0.000767
926.6908	0.002160
927.4127	0.003026
928.1347	0.000345
928.8568	0.002371
929.5789	0.002477
930.3011	0.002815
931.0234	0.002266
931.7457	0.002287
932.4681	0.002181
933.1906	0.001379
933.9131	0.000767
934.6358	0.001126
935.3584	0.001189
936.0812	0.000936
936.8040	0.001844
937.5269	0.000556
938.2498	0.000577
938.9728	0.001231
939.6959	-0.000310
940.4190	0.001759
941.1422	0.000957
941.8655	0.001527
942.5889	0.001379
943.3123	0.001210
944.0357	0.001949
944.7593	0.002287
945.4829	0.000661
946.2066	0.001041
946.9303	0.001210
947.6541	0.001548
948.3780	0.000661
949.1019	0.001105
949.8259	0.000704
950.5500	0.002540
951.2741	0.000683
951.9983	0.001105
952.7226	0.002012
953.4469	0.001421
954.1713	0.001991
954.8958	0.000134
955.6203	0.001907
956.3449	0.000978
957.0696	-0.000310
957.7943	0.000324
958.5191	0.001105
959.2439	0.000113
959.9688	0.000345
960.6938	0.001295
961.4189	-0.000563
962.1440	0.001907
962.8692	0.001189
963.5944	0.000746
964.3197	0.001442
965.0451	0.000851
965.7705	-0.000373
966.4960	-0.000753
967.2216	0.000260
967.9472	0.000218
968.6729	0.000704
969.3987	0.000303
970.1245	-0.000162
970.8504	0.002012
971.5763	0.000239
972.3023	0.000915
973.0284	0.000535
973.7545	0.000239
974.4807	-0.000141
975.2070	0.000113
975.9333	0.001442
976.6597	0.001485
977.3862	0.000324
978.1127	0.001506
978.8393	-0.000415
979.5659	-0.000563
980.2926	0.000091
981.0194	0.001147
981.7462	-0.000753
982.4731	0.001020
983.2001	-0.000436
983.9271	0.001337
984.6542	0.000324
985.3814	0.000155
986.1086	-0.000183
986.8358	0.000471
987.5632	-0.000584
988.2906	-0.001492
989.0180	-0.000183
989.7456	-0.000500
990.4732	0.000683
991.2008	0.001063
991.9285	-0.000563
992.6563	-0.000500
993.3841	-0.000478
994.1120	0.000176
994.8400	-0.000352
995.5680	0.000281
996.2961	-0.000035
997.0242	0.000387
997.7524	0.000345
998.4807	-0.000500
999.2090	-0.000415
999.9374	0.000619
1000.67	-0.000373
1001.39	-0.000500
1002.12	-0.001175
1002.85	-0.000373
1003.58	0.001527
1004.31	-0.000500
1005.04	0.000028
1005.77	-0.000246
1006.5	-0.000225
1007.22	-0.001956
1007.95	0.000999
1008.68	0.000239
1009.41	0.000661
1010.14	-0.001597
1010.87	-0.000246
1011.6	-0.001323
1012.33	0.001105
1013.06	-0.000668
1013.79	0.000999
1014.52	0.000091
1015.25	-0.000985
1015.98	0.000978
1016.71	0.000176
1017.44	-0.000077
1018.17	0.000535
1018.9	-0.000077
1019.63	0.000007
1020.36	-0.001027
1021.09	-0.001006
1021.82	-0.001829
1022.55	-0.000014
1023.03	-0.000014