File: spectrum_2025-06-19_08-49-30.txt
# Wavelength (nm)	Intensity (a.u.)
197.7802	0.000899
198.3922	0.000243
199.0044	0.000159
199.6168	-0.000433
200.2292	0.000264
200.8418	0.000074
201.4546	0.001512
202.0674	-0.001258
202.6805	0.000793
203.2936	0.001110
203.9069	0.002019
204.5203	0.000264
205.1338	0.001427
205.7475	-0.001406
206.3614	0.000011
206.9753	0.000814
207.5894	-0.001216
208.2036	-0.000243
208.8180	0.000159
209.4325	-0.000243
210.0471	0.001025
210.6618	0.001089
211.2767	0.001068
211.8918	-0.000856
212.5069	0.000814
213.1222	0.001554
213.7376	-0.002125
214.3532	-0.001660
214.9689	0.000687
215.5847	0.000285
216.2007	0.000222
216.8168	-0.000666
217.4330	0.000560
218.0494	0.000666
218.6659	0.000603
219.2825	-0.000518
219.8992	0.001110
220.5161	-0.000581
221.1332	0.000032
221.7503	-0.000074
222.3676	0.000243
222.9850	0.002209
223.6026	-0.000497
224.2203	0.000412
224.8381	-0.000032
225.4561	-0.000370
226.0742	0.000920
226.6924	-0.000433
227.3107	-0.000877
227.9292	-0.000307
228.5478	0.000751
229.1666	-0.001089
229.7855	-0.002209
230.4045	0.001575
231.0236	-0.000539
231.6429	0.000814
232.2623	0.001321
232.8818	0.000603
233.5015	-0.000476
234.1213	0.000560
234.7413	-0.000074
235.3613	0.000497
235.9815	0.000983
236.6018	0.000349
237.2223	-0.000856
237.8429	0.000074
238.4636	0.000941
239.0845	-0.000053
239.7055	0.000116
240.3266	-0.001321
240.9478	0.001131
241.5692	0.000201
242.1907	-0.000581
242.8124	0.000264
243.4341	-0.000687
244.0560	0.000518
244.6781	0.000032
245.3002	-0.000920
245.9225	-0.000053
246.5449	-0.001533
247.1675	0.000751
247.7902	-0.001469
248.4130	-0.001004
249.0359	0.001364
249.6590	-0.000751
250.2822	-0.000645
250.9056	0.000708
251.5290	0.000941
252.1526	0.000899
252.7763	-0.000666
253.4002	-0.000307
254.0242	-0.000645
254.6483	0.000729
255.2725	0.000011
255.8969	0.000793
256.5214	0.001279
257.1460	0.000877
257.7708	-0.001004
258.3957	0.000116
259.0207	0.001047
259.6459	0.000285
260.2711	-0.000835
260.8965	0.000285
261.5221	-0.000243
262.1477	0.001364
262.7735	0.001829
263.3995	0.000751
264.0255	0.000053
264.6517	0.000222
265.2780	-0.000560
265.9044	0.002315
266.5310	-0.000264
267.1577	-0.000624
267.7845	0.000011
268.4114	0.001047
269.0385	-0.000772
269.6657	-0.000222
270.2931	0.001173
270.9205	-0.000856
271.5481	-0.000751
272.1758	-0.000560
272.8037	0.000835
273.4316	0.000032
274.0597	-0.000729
274.6880	-0.001110
275.3163	-0.000180
275.9448	0.001025
276.5734	0.001343
277.2022	0.000455
277.8310	-0.003267
278.4600	0.000412
279.0891	0.000180
279.7184	0.000285
280.3477	-0.002231
280.9772	0.000370
281.6069	0.001512
282.2366	-0.000624
282.8665	-0.001427
283.4965	-0.000708
284.1266	-0.000581
284.7569	-0.001575
285.3873	-0.000159
286.0178	0.000370
286.6484	-0.000307
287.2792	0.000772
287.9101	0.001512
288.5411	0.000687
289.1723	-0.001152
289.8035	-0.001364
290.4349	-0.000349
291.0665	0.000011
291.6981	-0.000328
292.3299	-0.000307
292.9618	0.001279
293.5938	-0.000877
294.2260	0.000772
294.8582	0.000053
295.4906	0.000412
296.1232	0.000159
296.7558	-0.000856
297.3886	0.000264
298.0215	0.001300
298.6545	0.000476
299.2877	-0.000137
299.9210	0.001047
300.5544	0.000772
301.1879	0.000581
301.8215	-0.001977
302.4553	0.001512
303.0892	-0.000962
303.7233	0.000899
304.3574	0.000222
304.9917	0.000328
305.6261	0.001723
306.2606	0.000011
306.8953	-0.000856
307.5301	-0.001195
308.1650	-0.000159
308.8000	0.003267
309.4351	-0.000053
310.0704	0.000095
310.7058	-0.000539
311.3413	0.000856
311.9770	0.001512
312.6127	0.000920
313.2486	-0.000518
313.8846	0.000180
314.5208	0.001744
315.1570	0.000983
315.7934	-0.000264
316.4299	-0.000455
317.0666	-0.001216
317.7033	0.000349
318.3402	-0.000624
318.9772	-0.000962
319.6143	0.000603
320.2516	-0.001681
320.8890	-0.000581
321.5265	0.003393
322.1641	-0.000518
322.8018	0.000899
323.4397	-0.002019
324.0777	0.000687
324.7158	-0.001004
325.3540	0.000328
325.9924	0.000074
326.6308	0.000920
327.2694	0.000349
327.9082	0.000201
328.5470	-0.000877
329.1860	0.000349
329.8251	0.000032
330.4643	0.000180
331.1036	0.000264
331.7431	0.001300
332.3826	-0.001364
333.0223	-0.000243
333.6622	-0.000116
334.3021	0.000095
334.9422	-0.000708
335.5823	0.001533
336.2227	-0.000243
336.8631	0.000899
337.5036	-0.000159
338.1443	0.000137
338.7851	-0.000433
339.4260	0.000539
340.0670	-0.000814
340.7082	0.001343
341.3495	-0.001681
341.9909	0.000983
342.6324	-0.000455
343.2740	0.000708
343.9158	-0.000159
344.5577	-0.000433
345.1997	-0.000941
345.8418	-0.000962
346.4840	-0.001787
347.1264	0.000391
347.7689	-0.000011
348.4115	0.001173
349.0542	-0.000180
349.6971	0.000814
350.3400	0.000962
350.9831	-0.000687
351.6263	0.000264
352.2696	0.000264
352.9131	-0.000032
353.5566	0.001469
354.2003	-0.000137
354.8441	-0.000116
355.4881	-0.000180
356.1321	-0.001998
356.7763	0.000285
357.4206	0.001004
358.0650	0.000243
358.7095	0.000687
359.3541	-0.000285
359.9989	0.000180
360.6438	0.001025
361.2888	0.000391
361.9339	0.000433
362.5791	0.001448
363.2245	0.001364
363.8699	0.002104
364.5155	-0.000793
365.1612	0.000137
365.8071	0.000264
366.4530	-0.000180
367.0991	0.000603
367.7453	0.000877
368.3916	0.001195
369.0380	0.000137
369.6845	-0.000899
370.3312	0.000370
370.9780	-0.000751
371.6249	0.000328
372.2719	-0.000201
372.9190	0.000180
373.5663	-0.000053
374.2136	0.000074
374.8611	0.000285
375.5087	-0.000412
376.1564	0.000222
376.8043	-0.000497
377.4522	0.000518
378.1003	0.000222
378.7485	-0.000687
379.3968	-0.000645
380.0452	-0.000708
380.6938	-0.000349
381.3424	0.000814
381.9912	0.001554
382.6401	-0.001047
383.2891	0.000539
383.9382	0.000581
384.5875	0.000222
385.2368	0.002019
385.8863	-0.000095
386.5359	0.000201
387.1856	-0.001639
387.8355	-0.000476
388.4854	-0.000159
389.1355	-0.000433
389.7856	-0.000053
390.4359	0.000074
391.0863	-0.000899
391.7369	-0.000243
392.3875	-0.000243
393.0383	0.000116
393.6891	0.000581
394.3401	0.000180
394.9912	0.001089
395.6425	-0.001025
396.2938	-0.001004
396.9453	0.000074
397.5968	0.000539
398.2485	0.000349
398.9003	-0.001469
399.5522	-0.000624
400.2043	0.001152
400.8564	-0.001406
401.5087	0.000539
402.1610	-0.000518
402.8135	-0.000349
403.4661	-0.001617
404.1189	0.001216
404.7717	-0.000222
405.4246	-0.000793
406.0777	-0.001469
406.7309	0.000877
407.3842	-0.000011
408.0376	-0.000814
408.6911	0.000772
409.3448	-0.000349
409.9985	-0.000581
410.6524	-0.001173
411.3064	-0.000159
411.9605	-0.002548
412.6147	0.000581
413.2690	0.000560
413.9234	0.000772
414.5780	0.000835
415.2326	0.001744
415.8874	-0.000095
416.5423	0.001131
417.1973	0.001596
417.8524	-0.000539
418.5077	-0.000307
419.1630	-0.000539
419.8185	-0.002019
420.4741	0.000941
421.1298	-0.000962
421.7856	0.000328
422.4415	0.000370
423.0975	-0.000772
423.7536	0.000603
424.4099	0.002040
425.0663	0.000053
425.7228	0.000624
426.3793	-0.000391
427.0361	-0.002125
427.6929	-0.000793
428.3498	-0.000053
429.0068	0.000285
429.6640	0.000412
430.3213	0.000920
430.9787	0.000391
431.6362	0.000497
432.2938	0.000074
432.9515	-0.001554
433.6093	0.001406
434.2673	0.000560
434.9253	0.000307
435.5835	-0.000095
436.2418	0.000687
436.9001	-0.001195
437.5586	0.000518
438.2173	0.000370
438.8760	0.001152
439.5348	0.001279
440.1938	-0.000180
440.8528	-0.000772
441.5120	0.000539
442.1713	-0.001279
442.8307	0.000074
443.4902	-0.000941
444.1498	-0.001343
444.8095	-0.001216
445.4694	-0.000349
446.1293	0.000328
446.7894	0.000899
447.4496	-0.000116
448.1098	0.001977
448.7702	0.001913
449.4307	0.000518
450.0914	-0.000285
450.7521	0.000772
451.4129	-0.000074
452.0739	-0.000222
452.7349	0.000349
453.3961	0.000180
454.0574	0.000835
454.7188	0.000497
455.3803	0.000941
456.0419	-0.000708
456.7036	-0.001364
457.3654	-0.001004
458.0274	-0.001237
458.6894	-0.000560
459.3516	-0.000687
460.0138	0.000645
460.6762	-0.001152
461.3387	-0.000772
462.0013	0.000074
462.6640	-0.000349
463.3268	0.000518
463.9897	-0.000877
464.6528	0.001427
465.3159	-0.000433
465.9792	0.000877
466.6425	-0.000729
467.3060	0.001279
467.9696	0.000285
468.6333	-0.000645
469.2970	0.000751
469.9610	0.000095
470.6250	-0.000074
471.2891	-0.001047
471.9533	-0.000222
472.6177	-0.001660
473.2821	0.001343
473.9467	0.000201
474.6113	-0.000095
475.2761	-0.000349
475.9410	-0.001469
476.6060	0.000624
477.2711	0.008658
477.9363	-0.000455
478.6016	0.001089
479.2670	0.000180
479.9325	-0.000243
480.5982	-0.000560
481.2639	-0.000645
481.9298	-0.001596
482.5957	-0.000053
483.2618	-0.000285
483.9280	-0.001702
484.5943	0.000201
485.2606	0.000433
485.9271	0.000751
486.5937	-0.000814
487.2605	0.001617
487.9273	-0.001533
488.5942	0.000328
489.2612	-0.001512
489.9284	0.000603
490.5956	-0.000920
491.2630	0.000370
491.9304	-0.000497
492.5980	0.001004
493.2657	-0.000666
493.9334	-0.000011
494.6013	0.000243
495.2693	0.000032
495.9374	-0.001110
496.6056	0.000328
497.2739	-0.000751
497.9423	-0.000137
498.6109	0.000856
499.2795	0.001639
499.9482	-0.000729
500.6171	0.000962
501.2860	-0.000856
501.9551	0.000264
502.6242	0.001343
503.2935	0.000285
503.9628	-0.001279
504.6323	0.000603
505.3019	0.000412
505.9716	-0.001300
506.6414	0.001639
507.3113	-0.000539
507.9813	0.001004
508.6514	-0.000285
509.3216	0.001364
509.9919	-0.000349
510.6623	0.000032
511.3329	0.000095
512.0035	0.001723
512.6742	-0.000159
513.3451	0.000095
514.0160	0.001385
514.6871	0.000793
515.3582	0.001258
516.0295	-0.000053
516.7008	0.000877
517.3723	0.000222
518.0439	0.000835
518.7155	0.000877
519.3873	0.000476
520.0592	0.000328
520.7312	-0.000116
521.4033	-0.000328
522.0755	-0.000137
522.7478	-0.001258
523.4202	-0.000814
524.0927	0.000116
524.7653	-0.000708
525.4380	0.000433
526.1108	-0.000941
526.7837	0.000476
527.4568	0.000370
528.1299	-0.000899
528.8031	-0.000180
529.4765	0.000433
530.1499	0.000243
530.8234	0.001089
531.4971	-0.001089
532.1708	0.001723
532.8447	0.000264
533.5186	-0.000412
534.1927	-0.001152
534.8668	-0.000433
535.5411	-0.000518
536.2155	-0.001173
536.8899	-0.000095
537.5645	0.001913
538.2392	0.000137
538.9139	-0.000074
539.5888	0.000412
540.2638	0.000391
540.9389	-0.000772
541.6140	0.001681
542.2893	0.000603
542.9647	0.000666
543.6402	0.000285
544.3158	-0.001469
544.9915	0.000159
545.6673	-0.000053
546.3432	-0.000180
547.0192	-0.000455
547.6953	0.001491
548.3715	-0.000307
549.0478	-0.000391
549.7242	-0.000222
550.4007	0.000370
551.0773	-0.000962
551.7540	-0.001321
552.4308	-0.000624
553.1077	-0.001173
553.7847	0.000814
554.4618	-0.001491
555.1390	-0.000053
555.8163	-0.000201
556.4937	0.000476
557.1712	-0.000793
557.8488	0.000243
558.5266	-0.000814
559.2044	0.000074
559.8823	-0.000983
560.5603	0.001427
561.2384	-0.000751
561.9166	-0.000201
562.5949	0.000624
563.2733	0.000729
563.9519	-0.000116
564.6305	0.000624
565.3092	-0.001110
565.9880	0.001089
566.6669	-0.000835
567.3459	0.003541
568.0250	0.000370
568.7043	0.001110
569.3836	-0.000687
570.0630	-0.000095
570.7425	-0.001321
571.4221	0.000835
572.1018	-0.001237
572.7816	0.000793
573.4615	-0.001744
574.1415	-0.000856
574.8216	-0.000687
575.5018	0.001131
576.1821	0.000941
576.8626	0.000137
577.5431	-0.000793
578.2237	-0.001131
578.9044	-0.001512
579.5851	-0.000941
580.2660	-0.000666
580.9470	-0.000899
581.6281	-0.000560
582.3093	0.000433
582.9906	0.000581
583.6720	0.001681
584.3535	0.001089
585.0351	-0.000539
585.7167	0.001596
586.3985	-0.000899
587.0804	0.000835
587.7624	0.000497
588.4445	0.001956
589.1266	-0.000687
589.8089	0.000201
590.4913	-0.000137
591.1737	0.000899
591.8563	-0.001406
592.5389	0.001110
593.2217	-0.000581
593.9046	0.001850
594.5875	-0.000581
595.2705	0.000011
595.9537	-0.000729
596.6369	-0.001491
597.3203	-0.001448
598.0037	0.001448
598.6872	-0.000370
599.3709	0.001364
600.0546	-0.000349
600.7384	-0.000518
601.4223	0.000899
602.1064	-0.001004
602.7905	-0.000433
603.4747	-0.000666
604.1590	-0.000772
604.8434	-0.000497
605.5279	0.001110
606.2125	-0.001321
606.8972	0.001237
607.5819	-0.000285
608.2668	0.001216
608.9518	0.000962
609.6369	-0.000095
610.3220	-0.000116
611.0073	-0.000497
611.6927	-0.000729
612.3781	-0.001681
613.0637	0.000899
613.7493	-0.000074
614.4351	-0.001195
615.1209	-0.000476
615.8068	-0.000391
616.4929	-0.000137
617.1790	0.000116
617.8652	-0.001427
618.5515	0.000497
619.2379	0.000053
619.9244	-0.000074
620.6110	-0.001047
621.2977	0.000624
621.9845	-0.001089
622.6714	-0.001406
623.3584	-0.000264
624.0454	0.000180
624.7326	-0.001406
625.4199	-0.000349
626.1072	-0.001321
626.7947	-0.000412
627.4822	-0.001681
628.1698	0.001173
628.8576	-0.000328
629.5454	0.000624
630.2333	0.001195
630.9213	0.000307
631.6094	0.000349
632.2976	0.001195
632.9859	-0.001047
633.6743	0.003816
634.3628	-0.000328
635.0514	-0.000116
635.7400	-0.001343
636.4288	0.000433
637.1177	0.002590
637.8066	-0.000560
638.4957	0.000011
639.1848	0.000391
639.8740	0.001886
640.5633	0.000245
641.2528	0.001387
641.9423	-0.000053
642.6319	-0.000011
643.3216	0.000443
644.0113	-0.000198
644.7012	0.000704
645.3912	-0.000594
646.0812	-0.000190
646.7714	0.000901
647.4616	-0.000345
648.1520	0.000847
648.8424	0.000578
649.5329	-0.002390
650.2236	-0.000769
650.9143	0.001266
651.6051	-0.000414
652.2960	0.000053
652.9870	-0.000993
653.6780	-0.000612
654.3692	0.000414
655.0605	0.001506
655.7518	0.000032
656.4433	0.002629
657.1348	0.000095
657.8264	0.000645
658.5181	-0.000474
659.2099	-0.000841
659.9018	-0.000265
660.5938	-0.000644
661.2859	0.000456
661.9781	0.000286
662.6704	-0.000904
663.3627	-0.000158
664.0552	-0.002468
664.7477	-0.000788
665.4403	-0.001577
666.1330	0.001967
666.8259	-0.000622
667.5188	0.001046
668.2117	0.001143
668.9048	-0.000941
669.5980	-0.001216
670.2913	0.000560
670.9846	-0.000116
671.6781	0.001258
672.3716	0.000201
673.0652	0.000708
673.7589	-0.000201
674.4527	-0.001406
675.1466	-0.001808
675.8406	0.002463
676.5347	-0.000328
677.2288	-0.000687
677.9231	0.000116
678.6174	-0.001617
679.3119	-0.000391
680.0064	0.000137
680.7010	-0.001047
681.3957	0.000285
682.0905	-0.000687
682.7854	-0.000370
683.4803	0.000307
684.1754	0.001533
684.8705	-0.002336
685.5658	0.000349
686.2611	-0.000899
686.9565	-0.001681
687.6520	0.001195
688.3476	-0.000603
689.0433	-0.000095
689.7390	-0.000518
690.4349	-0.001850
691.1308	0.002040
691.8269	0.000285
692.5230	0.000201
693.2192	0.001279
693.9155	-0.000053
694.6119	0.000433
695.3083	-0.000476
696.0049	-0.000285
696.7016	-0.001617
697.3983	0.001004
698.0951	0.000433
698.7920	0.005698
699.4890	-0.000116
700.1861	0.002188
700.8833	0.000920
701.5806	0.000455
702.2779	-0.001089
702.9753	0.002104
703.6729	-0.001448
704.3705	-0.000201
705.0682	-0.000560
705.7660	0.000370
706.4638	0.000539
707.1618	0.001300
707.8599	-0.001469
708.5580	-0.000962
709.2562	0.000983
709.9545	-0.000603
710.6529	-0.000412
711.3514	-0.000137
712.0500	-0.000180
712.7486	-0.000011
713.4474	-0.000835
714.1462	0.000624
714.8451	-0.001364
715.5441	0.001004
716.2432	-0.001300
716.9424	-0.001258
717.6416	-0.001173
718.3410	-0.001004
719.0404	0.000011
719.7399	-0.000159
720.4395	-0.000729
721.1392	-0.001639
721.8390	0.001343
722.5388	0.001216
723.2388	-0.001364
723.9388	0.000962
724.6389	-0.000772
725.3391	-0.000349
726.0394	-0.000962
726.7398	0.000391
727.4403	0.000349
728.1408	0.001723
728.8414	-0.001871
729.5421	-0.000180
730.2429	-0.002104
730.9438	-0.000497
731.6448	0.000137
732.3458	-0.000645
733.0470	-0.001892
733.7482	-0.001047
734.4495	0.000581
735.1509	0.000920
735.8524	-0.001089
736.5539	0.000349
737.2556	-0.000011
737.9573	-0.000412
738.6591	-0.001512
739.3610	0.000581
740.0630	0.000412
740.7651	0.001935
741.4672	0.000856
742.1695	0.001025
742.8718	-0.000116
743.5742	-0.000095
744.2767	-0.000180
744.9792	0.003267
745.6819	0.001469
746.3846	0.001364
747.0874	-0.001596
747.7903	0.000666
748.4933	0.001025
749.1964	-0.000328
749.8995	-0.001554
750.6028	-0.000180
751.3061	-0.000962
752.0095	0.002527
752.7130	-0.000603
753.4166	0.000349
754.1202	-0.000433
754.8239	-0.000603
755.5278	0.000222
756.2317	-0.000941
756.9356	0.000159
757.6397	0.000687
758.3438	-0.000645
759.0481	0.001977
759.7524	-0.000856
760.4568	-0.000856
761.1613	0.000074
761.8658	0.000433
762.5705	-0.000497
763.2752	0.000941
763.9800	-0.001110
764.6849	-0.000011
765.3898	-0.001216
766.0949	-0.001237
766.8000	-0.001258
767.5052	-0.000264
768.2105	0.000983
768.9159	-0.001152
769.6214	-0.000032
770.3269	0.000328
771.0325	0.000307
771.7382	-0.001131
772.4440	-0.000053
773.1499	0.000497
773.8558	0.001089
774.5618	0.000751
775.2679	0.001956
775.9741	-0.001004
776.6804	0.000349
777.3868	-0.000751
778.0932	-0.000920
778.7997	-0.001787
779.5063	-0.000011
780.2130	0.000011
780.9197	0.001491
781.6265	-0.000624
782.3335	-0.000941
783.0405	-0.001195
783.7475	-0.000497
784.4547	-0.000053
785.1619	-0.000159
785.8692	-0.001364
786.5766	0.001575
787.2841	-0.001343
787.9917	0.000180
788.6993	-0.002548
789.4070	0.000814
790.1148	-0.001131
790.8227	-0.000222
791.5306	0.000116
792.2387	0.000666
792.9468	0.000624
793.6550	0.001554
794.3632	0.000941
795.0716	0.000455
795.7800	0.000285
796.4885	-0.000011
797.1971	0.001089
797.9058	0.000053
798.6145	0.000222
799.3233	-0.000433
800.0322	-0.000603
800.7412	0.000349
801.4503	-0.000666
802.1594	0.000264
802.8686	-0.000603
803.5779	-0.000497
804.2873	0.001343
804.9968	0.001047
805.7063	-0.000835
806.4159	-0.000708
807.1256	0.000581
807.8354	0.000455
808.5452	-0.000476
809.2551	0.000645
809.9651	0.000624
810.6752	-0.000285
811.3853	-0.000264
812.0956	0.000285
812.8059	-0.000624
813.5163	-0.000116
814.2267	0.000962
814.9373	0.000074
815.6479	-0.001300
816.3586	0.001364
817.0694	-0.000349
817.7802	0.001216
818.4912	-0.000412
819.2022	0.000772
819.9133	-0.000349
820.6244	-0.000095
821.3357	-0.000899
822.0470	-0.000074
822.7584	-0.000349
823.4698	-0.000349
824.1814	-0.000539
824.8930	-0.000433
825.6047	0.000793
826.3165	0.000349
827.0283	0.000433
827.7402	0.001258
828.4522	0.001321
829.1643	0.000433
829.8765	0.000877
830.5887	-0.000307
831.3010	-0.000856
832.0134	-0.000137
832.7259	-0.001279
833.4384	0.000159
834.1510	0.000074
834.8637	0.000011
835.5765	-0.000729
836.2893	-0.000222
837.0022	0.001258
837.7152	0.001343
838.4283	0.002083
839.1414	-0.002442
839.8546	0.000497
840.5679	-0.001237
841.2813	0.001110
841.9947	-0.000201
842.7082	-0.000243
843.4218	-0.000032
844.1355	-0.000074
844.8492	-0.000539
845.5631	0.000539
846.2770	-0.000264
846.9909	0.001469
847.7050	0.000856
848.4191	-0.000349
849.1333	-0.001004
849.8475	0.001469
850.5619	-0.001448
851.2763	-0.000497
851.9908	-0.001787
852.7053	-0.001089
853.4200	0.000053
854.1347	-0.000835
854.8495	-0.000011
855.5643	-0.000899
856.2792	-0.000349
856.9942	0.000539
857.7093	0.000645
858.4245	0.000243
859.1397	-0.000772
859.8550	0.000349
860.5704	-0.000307
861.2858	-0.000201
862.0013	0.000307
862.7169	0.000391
863.4326	-0.000011
864.1483	-0.000053
864.8642	0.000159
865.5800	0.001004
866.2960	-0.000285
867.0120	0.000328
867.7281	0.000201
868.4443	0.000074
869.1606	0.000159
869.8769	0.001173
870.5933	0.000983
871.3097	0.001068
872.0263	0.000539
872.7429	0.000497
873.4596	-0.000349
874.1763	0.000433
874.8932	-0.000476
875.6101	-0.000793
876.3270	-0.000920
877.0441	-0.000581
877.7612	0.001808
878.4784	-0.000835
879.1957	0.001723
879.9130	-0.000180
880.6304	-0.000476
881.3479	0.000814
882.0654	0.000074
882.7831	-0.000708
883.5007	0.000497
884.2185	-0.001533
884.9363	0.001935
885.6542	-0.001829
886.3722	0.000433
887.0903	0.000412
887.8084	0.000455
888.5266	-0.001575
889.2448	-0.000899
889.9632	-0.000560
890.6816	-0.000856
891.4001	0.001406
892.1186	0.000962
892.8372	0.000856
893.5559	-0.001152
894.2747	0.001237
894.9935	0.000264
895.7124	-0.002463
896.4314	-0.000560
897.1504	0.000349
897.8695	0.000856
898.5887	0.000772
899.3079	-0.000243
900.0272	0.000116
900.7466	0.001406
901.4661	-0.000307
902.1856	0.001047
902.9052	0.000307
903.6249	0.000455
904.3446	0.000095
905.0644	-0.000433
905.7843	-0.002040
906.5043	-0.000095
907.2243	0.000264
907.9444	0.000349
908.6645	-0.000581
909.3847	0.001808
910.1050	0.000201
910.8254	0.000941
911.5458	-0.000518
912.2663	0.000243
912.9869	-0.000349
913.7075	0.001448
914.4283	-0.001300
915.1490	-0.000433
915.8699	-0.000560
916.5908	0.000899
917.3118	-0.000560
918.0328	0.000518
918.7539	-0.000180
919.4751	-0.000201
920.1964	-0.000370
920.9177	-0.000856
921.6391	-0.000285
922.3606	0.001512
923.0821	0.000137
923.8037	-0.000307
924.5254	0.000032
925.2471	-0.001173
925.9689	0.001935
926.6908	-0.000835
927.4127	0.000539
928.1347	-0.000285
928.8568	-0.000011
929.5789	0.000011
930.3011	-0.000074
931.0234	0.001300
931.7457	0.001258
932.4681	-0.000814
933.1906	-0.000433
933.9131	-0.000222
934.6358	0.000116
935.3584	-0.000370
936.0812	0.001131
936.8040	0.000433
937.5269	-0.000391
938.2498	0.000814
938.9728	-0.000180
939.6959	-0.001617
940.4190	-0.002505
941.1422	0.000201
941.8655	-0.000518
942.5889	0.000899
943.3123	-0.000729
944.0357	-0.000687
944.7593	-0.001512
945.4829	-0.000201
946.2066	-0.000011
946.9303	0.000497
947.6541	-0.000074
948.3780	0.001829
949.1019	0.000476
949.8259	-0.000349
950.5500	0.000814
951.2741	0.000307
951.9983	-0.000476
952.7226	-0.000793
953.4469	0.000201
954.1713	-0.001152
954.8958	-0.000137
955.6203	-0.000856
956.3449	0.002125
957.0696	-0.001004
957.7943	-0.001300
958.5191	0.001131
959.2439	0.001004
959.9688	-0.001152
960.6938	-0.000116
961.4189	0.000307
962.1440	0.000624
962.8692	0.001364
963.5944	0.000243
964.3197	-0.000856
965.0451	0.000455
965.7705	-0.001152
966.4960	-0.000814
967.2216	0.000433
967.9472	0.001364
968.6729	-0.000899
969.3987	0.000603
970.1245	-0.000793
970.8504	0.000687
971.5763	0.001131
972.3023	-0.000074
973.0284	0.000328
973.7545	-0.000476
974.4807	-0.001279
975.2070	0.000285
975.9333	0.000264
976.6597	-0.000814
977.3862	0.000772
978.1127	-0.000285
978.8393	0.001195
979.5659	0.001406
980.2926	0.000243
981.0194	-0.002083
981.7462	0.000159
982.4731	-0.000285
983.2001	-0.001892
983.9271	0.000729
984.6542	0.001004
985.3814	0.001047
986.1086	0.000962
986.8358	0.001850
987.5632	0.000222
988.2906	0.001850
989.0180	-0.000180
989.7456	0.000349
990.4732	-0.000645
991.2008	0.001110
991.9285	0.000222
992.6563	0.000708
993.3841	-0.000159
994.1120	-0.000349
994.8400	-0.001068
995.5680	0.001427
996.2961	0.000011
997.0242	0.000877
997.7524	0.000539
998.4807	-0.000539
999.2090	-0.000518
999.9374	-0.001152
1000.67	-0.000180
1001.39	-0.000814
1002.12	0.000708
1002.85	0.000835
1003.58	-0.001850
1004.31	-0.001152
1005.04	0.000222
1005.77	-0.000433
1006.5	0.001195
1007.22	-0.000328
1007.95	0.000772
1008.68	-0.001258
1009.41	-0.001004
1010.14	-0.000137
1010.87	-0.001448
1011.6	0.000243
1012.33	0.001343
1013.06	-0.002336
1013.79	0.000751
1014.52	-0.000476
1015.25	0.000180
1015.98	0.000349
1016.71	0.001575
1017.44	0.001448
1018.17	-0.000391
1018.9	0.000581
1019.63	0.001258
1020.36	-0.000539
1021.09	0.000941
1021.82	-0.004324
1022.55	-0.002632
1023.03	-0.003119