File: spectrum_2025-06-19_08-59-44.txt
# Wavelength (nm)	Intensity (a.u.)
197.7802	-0.000643
198.3922	-0.000453
199.0044	0.000139
199.6168	-0.001405
200.2292	-0.000009
200.8418	0.000901
201.4546	0.000774
202.0674	0.000499
202.6805	0.000118
203.2936	0.000985
203.9069	0.000182
204.5203	0.000943
205.1338	0.001133
205.7475	-0.000368
206.3614	0.000922
206.9753	0.000774
207.5894	0.000012
208.2036	0.000097
208.8180	0.001725
209.4325	0.000372
210.0471	0.001239
210.6618	-0.000072
211.2767	0.001493
211.8918	0.000922
212.5069	0.002212
213.1222	0.000351
213.7376	-0.001257
214.3532	-0.000580
214.9689	-0.000538
215.5847	-0.001362
216.2007	0.001408
216.8168	-0.000389
217.4330	-0.000115
218.0494	-0.000347
218.6659	0.001641
219.2825	0.000033
219.8992	0.002000
220.5161	-0.000707
221.1332	-0.000178
221.7503	-0.000030
222.3676	0.000583
222.9850	0.000203
223.6026	0.000055
224.2203	-0.000368
224.8381	-0.001087
225.4561	-0.000178
226.0742	-0.000411
226.6924	0.001027
227.3107	-0.000982
227.9292	0.001324
228.5478	0.002021
229.1666	0.001429
229.7855	-0.001003
230.4045	0.001006
231.0236	-0.001299
231.6429	-0.000284
232.2623	-0.000347
232.8818	0.000287
233.5015	0.001070
234.1213	-0.000115
234.7413	0.000985
235.3613	-0.000580
235.9815	0.000012
236.6018	0.001472
237.2223	-0.000601
237.8429	0.001641
238.4636	0.002021
239.0845	-0.000643
239.7055	-0.000432
240.3266	-0.000474
240.9478	-0.000918
241.5692	-0.000389
242.1907	0.000182
242.8124	0.000731
243.4341	0.000816
244.0560	0.002275
244.6781	0.000224
245.3002	-0.001806
245.9225	0.000837
246.5449	-0.000559
247.1675	0.002254
247.7902	-0.001976
248.4130	-0.000368
249.0359	0.002021
249.6590	-0.000495
250.2822	-0.000305
250.9056	0.000351
251.5290	0.000012
252.1526	-0.000326
252.7763	-0.001383
253.4002	0.001091
254.0242	-0.001405
254.6483	0.000287
255.2725	-0.000030
255.8969	0.000816
256.5214	0.002127
257.1460	0.000435
257.7708	-0.001743
258.3957	0.002169
259.0207	0.001049
259.6459	-0.000411
260.2711	-0.000559
260.8965	0.000604
261.5221	-0.000982
262.1477	0.001450
262.7735	0.001260
263.3995	0.000731
264.0255	0.000203
264.6517	0.001704
265.2780	-0.001616
265.9044	0.002635
266.5310	0.000076
267.1577	-0.000918
267.7845	-0.000812
268.4114	-0.000389
269.0385	0.000435
269.6657	0.001197
270.2931	-0.001151
270.9205	-0.000072
271.5481	0.000499
272.1758	-0.000538
272.8037	-0.001468
273.4316	0.000224
274.0597	-0.000538
274.6880	-0.001362
275.3163	-0.001680
275.9448	-0.000368
276.5734	-0.000686
277.2022	-0.000474
277.8310	-0.001976
278.4600	0.000816
279.0891	-0.001510
279.7184	0.000287
280.3477	-0.001489
280.9772	0.000160
281.6069	0.001281
282.2366	-0.001172
282.8665	-0.000326
283.4965	0.000858
284.1266	-0.001172
284.7569	-0.000368
285.3873	-0.000030
286.0178	0.000858
286.6484	0.000499
287.2792	0.001281
287.9101	-0.000263
288.5411	0.000203
289.1723	-0.000411
289.8035	-0.000453
290.4349	-0.000622
291.0665	-0.000453
291.6981	-0.000834
292.3299	0.000372
292.9618	-0.000580
293.5938	0.000055
294.2260	-0.000791
294.8582	0.000499
295.4906	-0.000136
296.1232	-0.000347
296.7558	-0.000580
297.3886	-0.000136
298.0215	0.000033
298.6545	0.000774
299.2877	-0.001891
299.9210	0.000689
300.5544	0.000478
301.1879	-0.000516
301.8215	-0.001616
302.4553	0.000520
303.0892	-0.001870
303.7233	0.000266
304.3574	0.001873
304.9917	0.001598
305.6261	0.000774
306.2606	0.000266
306.8953	-0.000749
307.5301	-0.000009
308.1650	-0.000749
308.8000	0.000478
309.4351	-0.001151
310.0704	0.001789
310.7058	-0.001257
311.3413	0.000541
311.9770	-0.001066
312.6127	-0.001087
313.2486	-0.000982
313.8846	0.000901
314.5208	-0.000474
315.1570	0.000076
315.7934	0.000583
316.4299	-0.001257
317.0666	-0.000664
317.7033	-0.000263
318.3402	-0.000347
318.9772	-0.001024
319.6143	0.000478
320.2516	-0.001595
320.8890	-0.000347
321.5265	0.001112
322.1641	-0.000982
322.8018	0.000012
323.4397	-0.001109
324.0777	0.000731
324.7158	0.000499
325.3540	-0.000601
325.9924	-0.000686
326.6308	0.001197
327.2694	0.000414
327.9082	0.001450
328.5470	0.000118
329.1860	0.000224
329.8251	-0.000389
330.4643	0.000858
331.1036	0.000985
331.7431	-0.000178
332.3826	-0.001764
333.0223	0.000245
333.6622	-0.000220
334.3021	-0.000263
334.9422	-0.000051
335.5823	0.001556
336.2227	0.000964
336.8631	-0.000707
337.5036	-0.000538
338.1443	0.000076
338.7851	-0.001235
339.4260	0.000456
340.0670	-0.001405
340.7082	0.000774
341.3495	-0.000960
341.9909	0.003459
342.6324	0.000033
343.2740	0.000795
343.9158	0.000456
344.5577	0.000414
345.1997	0.000203
345.8418	-0.001976
346.4840	-0.000009
347.1264	-0.000136
347.7689	0.000414
348.4115	0.000668
349.0542	0.000520
349.6971	-0.001933
350.3400	-0.000157
350.9831	-0.000093
351.6263	0.000943
352.2696	-0.001045
352.9131	0.000943
353.5566	0.000055
354.2003	0.001175
354.8441	-0.000157
355.4881	0.000985
356.1321	-0.001806
356.7763	0.000499
357.4206	-0.000220
358.0650	0.000456
358.7095	0.001852
359.3541	-0.002420
359.9989	-0.000009
360.6438	0.000583
361.2888	-0.000220
361.9339	0.000604
362.5791	-0.001045
363.2245	0.000901
363.8699	0.001281
364.5155	-0.000432
365.1612	-0.000030
365.8071	0.000245
366.4530	-0.000220
367.0991	-0.000199
367.7453	-0.000897
368.3916	0.000055
369.0380	-0.000411
369.6845	0.000076
370.3312	0.000012
370.9780	0.000456
371.6249	0.000012
372.2719	0.001514
372.9190	-0.000453
373.5663	0.001641
374.2136	0.000753
374.8611	-0.000876
375.5087	-0.000918
376.1564	0.002423
376.8043	0.000139
377.4522	0.000076
378.1003	0.000393
378.7485	0.001027
379.3968	-0.001468
380.0452	-0.001257
380.6938	-0.001616
381.3424	0.001049
381.9912	0.000055
382.6401	-0.001553
383.2891	-0.000559
383.9382	-0.000707
384.5875	-0.000664
385.2368	-0.000474
385.8863	0.000182
386.5359	-0.000559
387.1856	-0.000368
387.8355	0.000224
388.4854	-0.000432
389.1355	0.000478
389.7856	-0.001933
390.4359	-0.000115
391.0863	-0.000157
391.7369	-0.000834
392.3875	-0.000093
393.0383	-0.001235
393.6891	-0.000072
394.3401	-0.000411
394.9912	0.000964
395.6425	0.000330
396.2938	-0.000664
396.9453	-0.000220
397.5968	0.000499
398.2485	-0.000157
398.9003	-0.000326
399.5522	-0.000686
400.2043	0.000435
400.8564	0.000118
401.5087	0.001937
402.1610	-0.001701
402.8135	-0.000157
403.4661	-0.001722
404.1189	-0.000411
404.7717	-0.001066
405.4246	-0.000474
406.0777	-0.001828
406.7309	-0.000389
407.3842	0.000203
408.0376	-0.000559
408.6911	0.001979
409.3448	-0.000411
409.9985	0.002635
410.6524	-0.000199
411.3064	0.000499
411.9605	-0.000707
412.6147	-0.000601
413.2690	0.000139
413.9234	-0.000136
414.5780	-0.000220
415.2326	0.001472
415.8874	-0.000432
416.5423	0.000287
417.1973	-0.000284
417.8524	-0.001045
418.5077	-0.001151
419.1630	0.000160
419.8185	-0.001785
420.4741	0.000182
421.1298	-0.001087
421.7856	0.000351
422.4415	0.000837
423.0975	0.001429
423.7536	-0.000305
424.4099	0.001027
425.0663	-0.000918
425.7228	0.000076
426.3793	0.000668
427.0361	-0.001024
427.6929	0.001514
428.3498	-0.001933
429.0068	-0.001405
429.6640	-0.000368
430.3213	-0.000770
430.9787	0.000435
431.6362	0.000985
432.2938	-0.001383
432.9515	-0.001828
433.6093	0.000330
434.2673	0.000435
434.9253	-0.000389
435.5835	-0.001130
436.2418	0.001577
436.9001	-0.000960
437.5586	0.000626
438.2173	-0.000305
438.8760	0.000774
439.5348	-0.000918
440.1938	0.000372
440.8528	0.000372
441.5120	-0.001405
442.1713	-0.000982
442.8307	0.000055
443.4902	-0.001870
444.1498	0.000203
444.8095	0.000604
445.4694	-0.000749
446.1293	0.000583
446.7894	-0.000009
447.4496	0.001598
448.1098	-0.000939
448.7702	0.000055
449.4307	-0.000157
450.0914	-0.000157
450.7521	-0.001574
451.4129	-0.001658
452.0739	0.001387
452.7349	-0.000834
453.3961	-0.002187
454.0574	-0.000453
454.7188	0.000414
455.3803	-0.000855
456.0419	-0.001087
456.7036	-0.000601
457.3654	0.000139
458.0274	-0.000072
458.6894	-0.001891
459.3516	-0.001489
460.0138	0.000626
460.6762	-0.000136
461.3387	0.001556
462.0013	0.000901
462.6640	-0.002377
463.3268	-0.001193
463.9897	-0.000559
464.6528	-0.000347
465.3159	-0.000516
465.9792	0.000456
466.6425	-0.000220
467.3060	0.000266
467.9696	-0.001510
468.6333	0.002064
469.2970	-0.000009
469.9610	0.000224
470.6250	-0.000072
471.2891	0.000308
471.9533	-0.001045
472.6177	-0.001151
473.2821	0.000308
473.9467	0.000604
474.6113	-0.000791
475.2761	-0.001637
475.9410	-0.000812
476.6060	-0.000939
477.2711	0.006949
477.9363	-0.000093
478.6016	-0.000157
479.2670	-0.000411
479.9325	-0.000009
480.5982	-0.000876
481.2639	0.000330
481.9298	-0.000516
482.5957	-0.000664
483.2618	-0.000432
483.9280	-0.001109
484.5943	0.000858
485.2606	0.000731
485.9271	0.000308
486.5937	0.000795
487.2605	0.001345
487.9273	0.000033
488.5942	0.001345
489.2612	-0.001172
489.9284	-0.000030
490.5956	-0.000220
491.2630	0.000245
491.9304	-0.000389
492.5980	0.001027
493.2657	-0.000093
493.9334	-0.000664
494.6013	0.000139
495.2693	0.000351
495.9374	-0.002610
496.6056	-0.001997
497.2739	0.001387
497.9423	0.000139
498.6109	-0.000580
499.2795	0.000795
499.9482	0.001450
500.6171	0.002296
501.2860	-0.000347
501.9551	0.000816
502.6242	-0.000707
503.2935	0.000308
503.9628	-0.000411
504.6323	-0.000178
505.3019	0.000435
505.9716	-0.000326
506.6414	0.000266
507.3113	-0.001193
507.9813	-0.001383
508.6514	-0.000072
509.3216	0.001324
509.9919	0.000012
510.6623	-0.001003
511.3329	0.000224
512.0035	0.001218
512.6742	0.000308
513.3451	-0.000707
514.0160	0.000731
514.6871	-0.001087
515.3582	0.001027
516.0295	-0.001426
516.7008	0.000224
517.3723	0.000858
518.0439	0.000245
518.7155	0.000055
519.3873	0.001112
520.0592	0.000182
520.7312	-0.001764
521.4033	0.001387
522.0755	0.000668
522.7478	-0.000411
523.4202	-0.001997
524.0927	0.000266
524.7653	-0.000305
525.4380	0.000837
526.1108	-0.001849
526.7837	0.000372
527.4568	-0.000495
528.1299	-0.000960
528.8031	-0.001235
529.4765	-0.000812
530.1499	0.001662
530.8234	-0.001003
531.4971	-0.000136
532.1708	-0.000051
532.8447	0.000203
533.5186	-0.000474
534.1927	0.000964
534.8668	-0.000749
535.5411	0.000266
536.2155	-0.000157
536.8899	-0.000411
537.5645	0.000308
538.2392	-0.000241
538.9139	0.002169
539.5888	0.001620
540.2638	-0.000664
540.9389	-0.001214
541.6140	-0.000368
542.2893	-0.000559
542.9647	0.001472
543.6402	-0.000538
544.3158	-0.001257
544.9915	0.002381
545.6673	-0.001066
546.3432	-0.000284
547.0192	0.000182
547.6953	0.000731
548.3715	-0.001405
549.0478	-0.000220
549.7242	-0.002906
550.4007	-0.002610
551.0773	0.000097
551.7540	-0.000643
552.4308	-0.000622
553.1077	0.000604
553.7847	-0.000432
554.4618	0.000837
555.1390	0.000372
555.8163	0.001281
556.4937	0.000372
557.1712	-0.000876
557.8488	0.001112
558.5266	-0.001257
559.2044	0.000308
559.8823	-0.002081
560.5603	0.000774
561.2384	0.000245
561.9166	0.000520
562.5949	-0.000622
563.2733	0.000287
563.9519	-0.000241
564.6305	0.000372
565.3092	-0.000834
565.9880	0.000604
566.6669	-0.001172
567.3459	0.001197
568.0250	-0.000580
568.7043	0.001535
569.3836	0.000012
570.0630	0.000731
570.7425	-0.000749
571.4221	0.000118
572.1018	-0.000474
572.7816	0.001450
573.4615	-0.000178
574.1415	0.000182
574.8216	-0.000982
575.5018	0.001260
576.1821	0.001239
576.8626	0.000139
577.5431	0.000055
578.2237	-0.000749
578.9044	0.000330
579.5851	-0.001193
580.2660	-0.002145
580.9470	-0.000368
581.6281	0.001493
582.3093	-0.001130
582.9906	-0.001341
583.6720	-0.000284
584.3535	-0.000157
585.0351	0.000456
585.7167	0.002381
586.3985	-0.001447
587.0804	-0.000918
587.7624	0.001556
588.4445	0.001281
589.1266	0.000647
589.8089	0.002296
590.4913	0.000520
591.1737	0.001746
591.8563	-0.000749
592.5389	0.001027
593.2217	-0.002568
593.9046	0.001175
594.5875	-0.001109
595.2705	-0.000643
595.9537	-0.001531
596.6369	-0.000284
597.3203	-0.000855
598.0037	-0.000495
598.6872	-0.000812
599.3709	0.000287
600.0546	-0.000030
600.7384	0.000351
601.4223	0.002466
602.1064	-0.000326
602.7905	-0.001087
603.4747	0.000562
604.1590	-0.001574
604.8434	-0.001151
605.5279	-0.000834
606.2125	-0.000115
606.8972	0.001472
607.5819	-0.000368
608.2668	-0.000199
608.9518	0.000012
609.6369	-0.000030
610.3220	-0.001214
611.0073	-0.000072
611.6927	-0.000622
612.3781	0.000287
613.0637	0.001472
613.7493	0.000541
614.4351	-0.000791
615.1209	-0.000284
615.8068	0.000118
616.4929	0.000795
617.1790	-0.002102
617.8652	0.001218
618.5515	0.001493
619.2379	0.000182
619.9244	-0.000622
620.6110	0.000858
621.2977	-0.000115
621.9845	-0.000749
622.6714	0.000182
623.3584	-0.000876
624.0454	0.000203
624.7326	-0.000728
625.4199	-0.000749
626.1072	-0.000030
626.7947	-0.001637
627.4822	-0.001235
628.1698	0.000689
628.8576	-0.001341
629.5454	-0.000559
630.2333	0.002487
630.9213	0.000520
631.6094	-0.000263
632.2976	0.000055
632.9859	-0.000326
633.6743	0.001852
634.3628	-0.000728
635.0514	-0.000389
635.7400	-0.000157
636.4288	-0.001616
637.1177	-0.001193
637.8066	-0.001764
638.4957	-0.002081
639.1848	-0.001172
639.8740	-0.000670
640.5633	-0.000542
641.2528	0.002046
641.9423	-0.001433
642.6319	-0.000769
643.3216	-0.000312
644.0113	-0.000663
644.7012	0.001064
645.3912	-0.000077
646.0812	-0.001304
646.7714	0.001015
647.4616	-0.001721
648.1520	0.000519
648.8424	-0.001101
649.5329	-0.001531
650.2236	-0.000957
650.9143	-0.000541
651.6051	-0.000221
652.2960	0.000902
652.9870	-0.001076
653.6780	-0.000181
654.3692	-0.000624
655.0605	-0.000159
655.7518	-0.001475
656.4433	0.001716
657.1348	-0.000791
657.8264	0.001091
658.5181	0.000392
659.2099	0.000545
659.9018	-0.000369
660.5938	-0.000854
661.2859	0.000309
661.9781	0.000076
662.6704	-0.001838
663.3627	0.001322
664.0552	0.000966
664.7477	0.000370
665.4403	-0.000259
666.1330	0.000980
666.8259	-0.000325
667.5188	0.000435
668.2117	0.000243
668.9048	-0.000157
669.5980	-0.000051
670.2913	-0.000411
670.9846	0.000203
671.6781	0.001937
672.3716	-0.001933
673.0652	-0.001616
673.7589	-0.000474
674.4527	0.000139
675.1466	-0.001151
675.8406	0.000055
676.5347	0.000435
677.2288	-0.000559
677.9231	0.001027
678.6174	0.000182
679.3119	-0.000136
680.0064	0.000224
680.7010	-0.001806
681.3957	-0.000199
682.0905	-0.001870
682.7854	0.000795
683.4803	0.000858
684.1754	0.001620
684.8705	-0.001933
685.5658	0.000266
686.2611	0.001197
686.9565	0.000943
687.6520	0.001218
688.3476	-0.000157
689.0433	-0.001680
689.7390	-0.001278
690.4349	-0.000939
691.1308	0.000160
691.8269	-0.000918
692.5230	-0.000495
693.2192	-0.001933
693.9155	0.000604
694.6119	0.000245
695.3083	-0.002081
696.0049	0.000562
696.7016	0.000922
697.3983	0.000795
698.0951	-0.000009
698.7920	0.005151
699.4890	-0.002399
700.1861	0.000055
700.8833	-0.001447
701.5806	0.000520
702.2779	-0.000495
702.9753	-0.000263
703.6729	-0.000199
704.3705	-0.000136
705.0682	-0.003033
705.7660	0.000837
706.4638	-0.000474
707.1618	0.001070
707.8599	-0.001299
708.5580	-0.001214
709.2562	0.000499
709.9545	-0.000707
710.6529	-0.000030
711.3514	-0.000072
712.0500	-0.000960
712.7486	-0.001933
713.4474	-0.000834
714.1462	-0.000072
714.8451	0.000033
715.5441	0.000710
716.2432	-0.001235
716.9424	0.000055
717.6416	0.000351
718.3410	-0.000368
719.0404	0.000668
719.7399	0.000731
720.4395	0.000330
721.1392	-0.001531
721.8390	0.002191
722.5388	0.000456
723.2388	-0.000960
723.9388	0.000203
724.6389	-0.000241
725.3391	0.001535
726.0394	0.000837
726.7398	0.002085
727.4403	0.000245
728.1408	0.000647
728.8414	-0.001341
729.5421	0.001895
730.2429	-0.001257
730.9438	0.000287
731.6448	0.000626
732.3458	-0.000474
733.0470	-0.001976
733.7482	-0.000284
734.4495	0.000520
735.1509	-0.000474
735.8524	-0.001933
736.5539	-0.000538
737.2556	0.002592
737.9573	0.000203
738.6591	-0.000897
739.3610	-0.000220
740.0630	0.001324
740.7651	0.001831
741.4672	-0.000009
742.1695	-0.000305
742.8718	-0.000855
743.5742	0.000710
744.2767	-0.000918
744.9792	-0.000241
745.6819	0.001704
746.3846	0.001789
747.0874	0.000837
747.7903	-0.000495
748.4933	0.000879
749.1964	-0.001045
749.8995	-0.002568
750.6028	0.000879
751.3061	-0.000263
752.0095	0.000985
752.7130	0.001620
753.4166	0.000626
754.1202	0.001239
754.8239	-0.001595
755.5278	-0.000855
756.2317	0.000076
756.9356	-0.000115
757.6397	0.000583
758.3438	0.000520
759.0481	0.000414
759.7524	0.000182
760.4568	-0.000284
761.1613	0.001197
761.8658	0.000393
762.5705	-0.000241
763.2752	0.000435
763.9800	-0.000664
764.6849	-0.000770
765.3898	-0.000580
766.0949	-0.002018
766.8000	-0.001024
767.5052	-0.000686
768.2105	-0.000601
768.9159	-0.000305
769.6214	0.001091
770.3269	-0.000284
771.0325	0.000710
771.7382	-0.002483
772.4440	0.000689
773.1499	-0.000897
773.8558	0.000541
774.5618	-0.000453
775.2679	0.000964
775.9741	-0.000157
776.6804	-0.000326
777.3868	-0.001531
778.0932	0.000879
778.7997	-0.001806
779.5063	0.000118
780.2130	0.001683
780.9197	-0.000115
781.6265	0.000520
782.3335	-0.001299
783.0405	-0.000136
783.7475	-0.000559
784.4547	0.000351
785.1619	-0.000474
785.8692	-0.002399
786.5766	-0.001151
787.2841	-0.000728
787.9917	0.000456
788.6993	-0.003160
789.4070	-0.000157
790.1148	0.000583
790.8227	0.000710
791.5306	0.000055
792.2387	-0.000009
792.9468	-0.000199
793.6550	0.001239
794.3632	0.000330
795.0716	0.000245
795.7800	0.000076
796.4885	-0.000686
797.1971	0.000012
797.9058	-0.000368
798.6145	-0.001172
799.3233	-0.001066
800.0322	0.000266
800.7412	0.000055
801.4503	-0.000199
802.1594	-0.000580
802.8686	-0.001193
803.5779	-0.000664
804.2873	-0.000855
804.9968	0.000435
805.7063	-0.000918
806.4159	0.000076
807.1256	0.000308
807.8354	-0.001341
808.5452	0.000203
809.2551	0.001704
809.9651	0.000710
810.6752	0.000139
811.3853	0.000710
812.0956	-0.001066
812.8059	-0.000770
813.5163	-0.001637
814.2267	-0.001341
814.9373	-0.000876
815.6479	-0.000538
816.3586	-0.000072
817.0694	-0.000136
817.7802	0.000033
818.4912	-0.000770
819.2022	-0.001531
819.9133	-0.000918
820.6244	-0.000601
821.3357	-0.000326
822.0470	-0.001849
822.7584	-0.001531
823.4698	-0.000072
824.1814	0.000393
824.8930	-0.000580
825.6047	0.000330
826.3165	-0.000686
827.0283	-0.000770
827.7402	0.001154
828.4522	0.001598
829.1643	-0.000664
829.8765	0.000435
830.5887	-0.001109
831.3010	-0.001405
832.0134	-0.000241
832.7259	-0.001510
833.4384	0.000160
834.1510	-0.001658
834.8637	-0.001235
835.5765	0.001218
836.2893	0.000308
837.0022	0.001197
837.7152	0.000520
838.4283	0.000245
839.1414	-0.001489
839.8546	-0.000347
840.5679	-0.000897
841.2813	0.001387
841.9947	-0.000220
842.7082	0.001472
843.4218	0.000118
844.1355	-0.000601
844.8492	-0.001235
845.5631	-0.000389
846.2770	0.000922
846.9909	-0.000220
847.7050	-0.000199
848.4191	-0.001087
849.1333	-0.001172
849.8475	0.001027
850.5619	-0.001680
851.2763	-0.000834
851.9908	0.000308
852.7053	0.000985
853.4200	0.000795
854.1347	0.000076
854.8495	-0.001405
855.5643	0.000012
856.2792	0.000182
856.9942	0.001916
857.7093	0.000097
858.4245	0.002254
859.1397	0.000520
859.8550	-0.001574
860.5704	-0.000749
861.2858	-0.000453
862.0013	0.000626
862.7169	0.000351
863.4326	-0.000664
864.1483	0.000435
864.8642	0.000139
865.5800	0.000287
866.2960	0.000456
867.0120	0.001641
867.7281	-0.001426
868.4443	0.000731
869.1606	-0.000538
869.8769	0.002169
870.5933	-0.000199
871.3097	0.000520
872.0263	0.000647
872.7429	-0.000939
873.4596	-0.000939
874.1763	0.002191
874.8932	-0.000664
875.6101	-0.000157
876.3270	-0.001574
877.0441	-0.000411
877.7612	0.001577
878.4784	-0.000643
879.1957	-0.000051
879.9130	-0.000876
880.6304	0.000266
881.3479	-0.000030
882.0654	-0.000389
882.7831	-0.000326
883.5007	0.000033
884.2185	-0.001087
884.9363	0.001408
885.6542	-0.000347
886.3722	-0.000876
887.0903	-0.000939
887.8084	0.000753
888.5266	-0.001087
889.2448	-0.001087
889.9632	-0.000960
890.6816	0.000795
891.4001	0.000097
892.1186	-0.000072
892.8372	-0.000516
893.5559	-0.000241
894.2747	-0.000220
894.9935	-0.000178
895.7124	-0.001024
896.4314	0.000435
897.1504	0.000097
897.8695	0.000985
898.5887	-0.000855
899.3079	-0.001130
900.0272	-0.002377
900.7466	0.000943
901.4661	0.000033
902.1856	-0.000030
902.9052	-0.001658
903.6249	0.000837
904.3446	-0.000093
905.0644	0.000879
905.7843	-0.000432
906.5043	0.000456
907.2243	0.000985
907.9444	-0.000178
908.6645	0.000858
909.3847	0.002106
910.1050	-0.000326
910.8254	-0.000432
911.5458	-0.001468
912.2663	-0.000411
912.9869	0.000351
913.7075	-0.000326
914.4283	0.000520
915.1490	0.000012
915.8699	0.000541
916.5908	0.000541
917.3118	-0.001066
918.0328	0.000774
918.7539	-0.000982
919.4751	0.000118
920.1964	-0.000326
920.9177	-0.001997
921.6391	-0.000411
922.3606	0.001197
923.0821	-0.000580
923.8037	-0.001130
924.5254	-0.000918
925.2471	-0.000664
925.9689	-0.000389
926.6908	-0.000664
927.4127	0.001239
928.1347	0.000351
928.8568	-0.001426
929.5789	0.000287
930.3011	-0.000178
931.0234	-0.000178
931.7457	-0.000432
932.4681	-0.000812
933.1906	-0.000199
933.9131	-0.001130
934.6358	-0.001976
935.3584	0.000731
936.0812	-0.000749
936.8040	0.000774
937.5269	-0.000770
938.2498	0.000901
938.9728	-0.000305
939.6959	-0.001637
940.4190	-0.001235
941.1422	0.000287
941.8655	0.000562
942.5889	0.000033
943.3123	-0.000834
944.0357	-0.000220
944.7593	-0.001383
945.4829	-0.001278
946.2066	-0.000939
946.9303	0.000774
947.6541	-0.001595
948.3780	0.000435
949.1019	-0.000707
949.8259	-0.000347
950.5500	-0.000601
951.2741	0.001133
951.9983	0.000055
952.7226	-0.001024
953.4469	-0.000072
954.1713	0.000520
954.8958	0.000055
955.6203	-0.000622
956.3449	0.001197
957.0696	-0.000115
957.7943	-0.000559
958.5191	0.000182
959.2439	0.000245
959.9688	-0.001087
960.6938	-0.001003
961.4189	-0.000389
962.1440	0.001197
962.8692	-0.000178
963.5944	-0.000791
964.3197	0.000393
965.0451	0.001577
965.7705	0.000224
966.4960	-0.001489
967.2216	0.000351
967.9472	0.000710
968.6729	-0.001257
969.3987	0.000266
970.1245	-0.001341
970.8504	-0.000601
971.5763	0.000033
972.3023	-0.001701
973.0284	0.000922
973.7545	0.000139
974.4807	-0.000453
975.2070	-0.000030
975.9333	-0.000284
976.6597	-0.000115
977.3862	-0.001595
978.1127	0.000985
978.8393	0.002043
979.5659	0.000964
980.2926	0.000012
981.0194	-0.001003
981.7462	-0.000326
982.4731	0.000414
983.2001	-0.002631
983.9271	0.000901
984.6542	-0.000263
985.3814	0.000393
986.1086	0.000795
986.8358	0.000626
987.5632	0.000033
988.2906	0.001154
989.0180	-0.000326
989.7456	-0.001087
990.4732	-0.000580
991.2008	0.000330
991.9285	0.000076
992.6563	-0.000664
993.3841	0.000118
994.1120	0.002571
994.8400	-0.000157
995.5680	0.000139
996.2961	-0.000093
997.0242	-0.000347
997.7524	-0.000664
998.4807	0.002127
999.2090	0.000604
999.9374	-0.001045
1000.67	-0.001045
1001.39	-0.000009
1002.12	-0.001024
1002.85	-0.000707
1003.58	-0.001658
1004.31	0.000076
1005.04	-0.001066
1005.77	0.000118
1006.5	0.001133
1007.22	-0.001003
1007.95	0.002677
1008.68	-0.000157
1009.41	-0.001362
1010.14	-0.001743
1010.87	-0.001468
1011.6	-0.000178
1012.33	-0.000241
1013.06	-0.000834
1013.79	0.001514
1014.52	0.000182
1015.25	-0.000516
1015.98	0.000372
1016.71	0.000541
1017.44	-0.000474
1018.17	0.000076
1018.9	0.001472
1019.63	0.001112
1020.36	-0.000495
1021.09	0.000435
1021.82	-0.003942
1022.55	-0.002039
1023.03	-0.001172