File: Auto_Polymerization/Spectra/MRG-061-F-4_spectra_while_stopped/spectrum_2025-06-20_07-40-46.txt
# Wavelength (nm)	Intensity (a.u.)
197.7802	0.000316
198.3922	-0.000232
199.0044	0.000295
199.6168	-0.000253
200.2292	-0.000759
200.8418	0.000569
201.4546	0.000063
202.0674	0.000084
202.6805	-0.000633
203.2936	-0.000886
203.9069	0.001519
204.5203	-0.000316
205.1338	0.000801
205.7475	-0.000970
206.3614	-0.000696
206.9753	0.000612
207.5894	0.000654
208.2036	0.000569
208.8180	0.000105
209.4325	0.001012
210.0471	0.001055
210.6618	0.000591
211.2767	0.002426
211.8918	0.000548
212.5069	0.001498
213.1222	-0.000928
213.7376	0.001413
214.3532	-0.000190
214.9689	0.000401
215.5847	-0.000295
216.2007	0.002257
216.8168	-0.001751
217.4330	-0.000105
218.0494	-0.000527
218.6659	-0.000759
219.2825	0.001076
219.8992	0.000021
220.5161	-0.001202
221.1332	0.000316
221.7503	0.000548
222.3676	0.001476
222.9850	0.000464
223.6026	0.000759
224.2203	-0.000021
224.8381	0.000612
225.4561	0.000443
226.0742	0.001160
226.6924	0.001624
227.3107	0.000485
227.9292	0.000169
228.5478	0.001202
229.1666	-0.000717
229.7855	-0.000084
230.4045	0.001392
231.0236	-0.000127
231.6429	-0.000042
232.2623	0.000359
232.8818	0.000591
233.5015	0.000359
234.1213	0.000591
234.7413	-0.001076
235.3613	-0.000316
235.9815	0.000949
236.6018	0.001371
237.2223	0.000127
237.8429	-0.000105
238.4636	-0.000232
239.0845	0.000485
239.7055	0.001308
240.3266	-0.000021
240.9478	-0.000169
241.5692	-0.000316
242.1907	0.001687
242.8124	0.000506
243.4341	0.001266
244.0560	-0.000380
244.6781	0.000274
245.3002	-0.000063
245.9225	0.000211
246.5449	0.000675
247.1675	0.000759
247.7902	0.000717
248.4130	0.001624
249.0359	-0.000316
249.6590	0.001118
250.2822	0.001455
250.9056	-0.000042
251.5290	-0.000506
252.1526	0.000316
252.7763	0.000190
253.4002	-0.000274
254.0242	0.001540
254.6483	0.000886
255.2725	-0.001223
255.8969	0.000970
256.5214	-0.000105
257.1460	0.000527
257.7708	0.000506
258.3957	-0.000253
259.0207	0.001118
259.6459	0.000991
260.2711	-0.000190
260.8965	0.000823
261.5221	0.000337
262.1477	0.000591
262.7735	0.000063
263.3995	-0.000021
264.0255	-0.000928
264.6517	0.001624
265.2780	-0.000380
265.9044	0.000696
266.5310	0.001519
267.1577	0.000633
267.7845	-0.000042
268.4114	0.000127
269.0385	0.000127
269.6657	0.001856
270.2931	0.000316
270.9205	0.000401
271.5481	0.000084
272.1758	-0.000928
272.8037	-0.000485
273.4316	0.001076
274.0597	-0.000127
274.6880	0.000738
275.3163	-0.000169
275.9448	-0.000211
276.5734	0.001708
277.2022	-0.000591
277.8310	-0.000422
278.4600	0.000232
279.0891	0.000780
279.7184	0.001455
280.3477	-0.000211
280.9772	0.000443
281.6069	-0.000991
282.2366	0.000907
282.8665	-0.000042
283.4965	0.001202
284.1266	-0.000253
284.7569	-0.000401
285.3873	0.000464
286.0178	0.000696
286.6484	-0.001012
287.2792	0.001772
287.9101	-0.001266
288.5411	0.000485
289.1723	-0.000148
289.8035	0.000949
290.4349	0.000190
291.0665	0.000569
291.6981	0.000970
292.3299	0.000316
292.9618	0.000949
293.5938	0.000717
294.2260	-0.000211
294.8582	-0.000485
295.4906	-0.000169
296.1232	0.000274
296.7558	-0.000464
297.3886	-0.000443
298.0215	-0.000211
298.6545	0.001730
299.2877	-0.000021
299.9210	0.001582
300.5544	-0.000274
301.1879	0.000527
301.8215	0.002172
302.4553	0.002341
303.0892	0.000738
303.7233	0.001730
304.3574	0.001962
304.9917	-0.000337
305.6261	-0.000717
306.2606	0.000696
306.8953	-0.000654
307.5301	0.000696
308.1650	0.000021
308.8000	0.001160
309.4351	-0.001266
310.0704	0.001413
310.7058	0.000569
311.3413	0.000780
311.9770	-0.000401
312.6127	0.001476
313.2486	0.000823
313.8846	0.001498
314.5208	0.000949
315.1570	0.001033
315.7934	0.001434
316.4299	0.000063
317.0666	0.000000
317.7033	0.001498
318.3402	-0.000675
318.9772	0.001181
319.6143	-0.001181
320.2516	0.000591
320.8890	0.001392
321.5265	0.000337
322.1641	-0.000105
322.8018	0.001498
323.4397	-0.000949
324.0777	0.002025
324.7158	0.000928
325.3540	0.001266
325.9924	0.001498
326.6308	0.000886
327.2694	-0.001012
327.9082	0.001244
328.5470	0.000105
329.1860	0.001076
329.8251	0.001793
330.4643	0.000970
331.1036	-0.001413
331.7431	-0.000527
332.3826	0.000443
333.0223	0.000527
333.6622	-0.000548
334.3021	-0.000063
334.9422	-0.000485
335.5823	0.000464
336.2227	-0.000042
336.8631	0.000337
337.5036	0.000506
338.1443	0.000105
338.7851	0.000844
339.4260	-0.000422
340.0670	-0.000274
340.7082	0.001603
341.3495	0.000717
341.9909	0.000105
342.6324	-0.000443
343.2740	-0.000548
343.9158	-0.000506
344.5577	0.000422
345.1997	-0.000485
345.8418	0.000042
346.4840	0.000042
347.1264	-0.000738
347.7689	0.000696
348.4115	0.000970
349.0542	0.000717
349.6971	0.000485
350.3400	-0.000527
350.9831	0.000337
351.6263	0.000084
352.2696	-0.000148
352.9131	-0.000337
353.5566	0.001076
354.2003	-0.000527
354.8441	0.001751
355.4881	0.000780
356.1321	0.001898
356.7763	0.000401
357.4206	0.000633
358.0650	-0.000190
358.7095	0.000148
359.3541	-0.000105
359.9989	0.001033
360.6438	0.000612
361.2888	0.001076
361.9339	-0.000148
362.5791	0.001645
363.2245	0.000506
363.8699	0.001476
364.5155	-0.000991
365.1612	0.001160
365.8071	0.000865
366.4530	0.000844
367.0991	-0.000443
367.7453	-0.000169
368.3916	0.000591
369.0380	0.001329
369.6845	0.001645
370.3312	0.000274
370.9780	-0.000591
371.6249	0.000464
372.2719	0.000380
372.9190	0.000928
373.5663	0.000169
374.2136	0.000569
374.8611	0.001097
375.5087	0.000211
376.1564	0.000359
376.8043	-0.000274
377.4522	-0.000780
378.1003	0.000485
378.7485	-0.000527
379.3968	0.000991
380.0452	-0.001097
380.6938	0.000148
381.3424	-0.000253
381.9912	0.000148
382.6401	-0.000569
383.2891	0.000612
383.9382	-0.000359
384.5875	-0.000042
385.2368	-0.000422
385.8863	0.001371
386.5359	0.000949
387.1856	0.000253
387.8355	0.002911
388.4854	0.003185
389.1355	0.002510
389.7856	0.001308
390.4359	0.003733
391.0863	0.004682
391.7369	0.002447
392.3875	0.006538
393.0383	0.006960
393.6891	0.006538
394.3401	0.006538
394.9912	0.006770
395.6425	0.007403
396.2938	0.008922
396.9453	0.008394
397.5968	0.010483
398.2485	0.010525
398.9003	0.012528
399.5522	0.012381
400.2043	0.012296
400.8564	0.014490
401.5087	0.013710
402.1610	0.014174
402.8135	0.014237
403.4661	0.013435
404.1189	0.015376
404.7717	0.016241
405.4246	0.016409
406.0777	0.017422
406.7309	0.016536
407.3842	0.015734
408.0376	0.016979
408.6911	0.017928
409.3448	0.017527
409.9985	0.018076
410.6524	0.018708
411.3064	0.018497
411.9605	0.018033
412.6147	0.020311
413.2690	0.020079
413.9234	0.021387
414.5780	0.019362
415.2326	0.019826
415.8874	0.020037
416.5423	0.019362
417.1973	0.019805
417.8524	0.020269
418.5077	0.020881
419.1630	0.021176
419.8185	0.019784
420.4741	0.020649
421.1298	0.022125
421.7856	0.026533
422.4415	0.024804
423.0975	0.022969
423.7536	0.022252
424.4099	0.022652
425.0663	0.021324
425.7228	0.021028
426.3793	0.018202
427.0361	0.019320
427.6929	0.023243
428.3498	0.022674
429.0068	0.020501
429.6640	0.021408
430.3213	0.022631
430.9787	0.023707
431.6362	0.020290
432.2938	0.020353
432.9515	0.020248
433.6093	0.021577
434.2673	0.023581
434.9253	0.019826
435.5835	0.020628
436.2418	0.021914
436.9001	0.019763
437.5586	0.020206
438.2173	0.019889
438.8760	0.020417
439.5348	0.020754
440.1938	0.019552
440.8528	0.020353
441.5120	0.024762
442.1713	0.021598
442.8307	0.021408
443.4902	0.021935
444.1498	0.021113
444.8095	0.020332
445.4694	0.020965
446.1293	0.019193
446.7894	0.019151
447.4496	0.017970
448.1098	0.018139
448.7702	0.018835
449.4307	0.019510
450.0914	0.016747
450.7521	0.017991
451.4129	0.017422
452.0739	0.016241
452.7349	0.016156
453.3961	0.014996
454.0574	0.014912
454.7188	0.015502
455.3803	0.013604
456.0419	0.014469
456.7036	0.013309
457.3654	0.013330
458.0274	0.015081
458.6894	0.013646
459.3516	0.013351
460.0138	0.012676
460.6762	0.011158
461.3387	0.012550
462.0013	0.011917
462.6640	0.010862
463.3268	0.010968
463.9897	0.011432
464.6528	0.013689
465.3159	0.011706
465.9792	0.011516
466.6425	0.010103
467.3060	0.009091
467.9696	0.009808
468.6333	0.009344
469.2970	0.008184
469.9610	0.007466
470.6250	0.006074
471.2891	0.007340
471.9533	0.007445
472.6177	0.005104
473.2821	0.008500
473.9467	0.007846
474.6113	0.006770
475.2761	0.008416
475.9410	0.006159
476.6060	0.005969
477.2711	0.006496
477.9363	0.006264
478.6016	0.005083
479.2670	0.005674
479.9325	0.005505
480.5982	0.005041
481.2639	0.004282
481.9298	0.005252
482.5957	0.003332
483.2618	0.004471
483.9280	0.005125
484.5943	0.005906
485.2606	0.005231
485.9271	0.014026
486.5937	0.008901
487.2605	0.007213
487.9273	0.004113
488.5942	0.004345
489.2612	0.003628
489.9284	0.004450
490.5956	0.003185
491.2630	0.003206
491.9304	0.002130
492.5980	0.002510
493.2657	0.002046
493.9334	0.002552
494.6013	0.002573
495.2693	0.002468
495.9374	0.002763
496.6056	0.002615
497.2739	0.002847
497.9423	0.002763
498.6109	0.002362
499.2795	0.002109
499.9482	0.003459
500.6171	0.003311
501.2860	0.002763
501.9551	0.002679
502.6242	0.002215
503.2935	0.001856
503.9628	0.001624
504.6323	0.000654
505.3019	0.003122
505.9716	0.001392
506.6414	0.002721
507.3113	0.002278
507.9813	0.002404
508.6514	0.003016
509.3216	0.002552
509.9919	0.002194
510.6623	0.002447
511.3329	0.003733
512.0035	0.001772
512.6742	0.003818
513.3451	0.001392
514.0160	0.003375
514.6871	0.001434
515.3582	0.003332
516.0295	0.001181
516.7008	0.002658
517.3723	0.002868
518.0439	0.002109
518.7155	0.002257
519.3873	0.002151
520.0592	0.002826
520.7312	0.002995
521.4033	0.002531
522.0755	0.002383
522.7478	0.003269
523.4202	0.001413
524.0927	0.003543
524.7653	0.002067
525.4380	0.002890
526.1108	0.001835
526.7837	0.002552
527.4568	0.003797
528.1299	0.001371
528.8031	0.004978
529.4765	0.002826
530.1499	0.002974
530.8234	0.004176
531.4971	0.004619
532.1708	0.003290
532.8447	0.003396
533.5186	0.006011
534.1927	0.005041
534.8668	0.005041
535.5411	0.005294
536.2155	0.006918
536.8899	0.005020
537.5645	0.005758
538.2392	0.007066
538.9139	0.006981
539.5888	0.006391
540.2638	0.007930
540.9389	0.008416
541.6140	0.008036
542.2893	0.008859
542.9647	0.010019
543.6402	0.008310
544.3158	0.009533
544.9915	0.009681
545.6673	0.008331
546.3432	0.011537
547.0192	0.010883
547.6953	0.012824
548.3715	0.014469
549.0478	0.013731
549.7242	0.014743
550.4007	0.012402
551.0773	0.012275
551.7540	0.015102
552.4308	0.016262
553.1077	0.016557
553.7847	0.016726
554.4618	0.015861
555.1390	0.017084
555.8163	0.017337
556.4937	0.020944
557.1712	0.017485
557.8488	0.019805
558.5266	0.019046
559.2044	0.018476
559.8823	0.019742
560.5603	0.021619
561.2384	0.024804
561.9166	0.025584
562.5949	0.022568
563.2733	0.025205
563.9519	0.025626
564.6305	0.027335
565.3092	0.030119
565.9880	0.030224
566.6669	0.029592
567.3459	0.037944
568.0250	0.041319
568.7043	0.046338
569.3836	0.057011
570.0630	0.073505
570.7425	0.078356
571.4221	0.091939
572.1018	0.098393
572.7816	0.086666
573.4615	0.101662
574.1415	0.114739
574.8216	0.126255
575.5018	0.127373
576.1821	0.112334
576.8626	0.130389
577.5431	0.140597
578.2237	0.175820
578.9044	0.142179
579.5851	0.143086
580.2660	0.151607
580.9470	0.148528
581.6281	0.229056
582.3093	0.217055
582.9906	0.167025
583.6720	0.138045
584.3535	0.142643
585.0351	0.162554
585.7167	0.170168
586.3985	0.142032
587.0804	0.152620
587.7624	0.164072
588.4445	0.142348
589.1266	0.128069
589.8089	0.115857
590.4913	0.110099
591.1737	0.094660
591.8563	0.094470
592.5389	0.109888
593.2217	0.149182
593.9046	0.139501
594.5875	0.120581
595.2705	0.140872
595.9537	0.125285
596.6369	0.101451
597.3203	0.106956
598.0037	0.103666
598.6872	0.112630
599.3709	0.133827
600.0546	0.130178
600.7384	0.131865
601.4223	0.131908
602.1064	0.119548
602.7905	0.121341
603.4747	0.136084
604.1590	0.124209
604.8434	0.108981
605.5279	0.116996
606.2125	0.127373
606.8972	0.110225
607.5819	0.113853
608.2668	0.105184
608.9518	0.102717
609.6369	0.095018
610.3220	0.109044
611.0073	0.096959
611.6927	0.096642
612.3781	0.093563
613.0637	0.094343
613.7493	0.088859
614.4351	0.092846
615.1209	0.089872
615.8068	0.095103
616.4929	0.082911
617.1790	0.078735
617.8652	0.077512
618.5515	0.073019
619.2379	0.064288
619.9244	0.065595
620.6110	0.067578
621.2977	0.053573
621.9845	0.059584
622.6714	0.061841
623.3584	0.063845
624.0454	0.062284
624.7326	0.067430
625.4199	0.060217
626.1072	0.052286
626.7947	0.049502
627.4822	0.052371
628.1698	0.045136
628.8576	0.042078
629.5454	0.045642
630.2333	0.043365
630.9213	0.042183
631.6094	0.038661
632.2976	0.036362
632.9859	0.032861
633.6743	0.032334
634.3628	0.031448
635.0514	0.028115
635.7400	0.029191
636.4288	0.034379
637.1177	0.032017
637.8066	0.029760
638.4957	0.031131
639.1848	0.029950
639.8740	0.027972
640.5633	0.027002
641.2528	0.025033
641.9423	0.022851
642.6319	0.020904
643.3216	0.020690
644.0113	0.021976
644.7012	0.018510
645.3912	0.019222
646.0812	0.019062
646.7714	0.018119
647.4616	0.018384
648.1520	0.019110
648.8424	0.024193
649.5329	0.024548
650.2236	0.021297
650.9143	0.021804
651.6051	0.020593
652.2960	0.022833
652.9870	0.023507
653.6780	0.024102
654.3692	0.024016
655.0605	0.044827
655.7518	0.732815
656.4433	0.971265
657.1348	0.619902
657.8264	0.375417
658.5181	0.281587
659.2099	0.202252
659.9018	0.050443
660.5938	0.019422
661.2859	0.016086
661.9781	0.017685
662.6704	0.014426
663.3627	0.016922
664.0552	0.016211
664.7477	0.015962
665.4403	0.016690
666.1330	0.016638
666.8259	0.013927
667.5188	0.015361
668.2117	0.015231
668.9048	0.016093
669.5980	0.014996
670.2913	0.016135
670.9846	0.015207
671.6781	0.020290
672.3716	0.025732
673.0652	0.023264
673.7589	0.021999
674.4527	0.018814
675.1466	0.017991
675.8406	0.019636
676.5347	0.017000
677.2288	0.017612
677.9231	0.021155
678.6174	0.020522
679.3119	0.023475
680.0064	0.027208
680.7010	0.024509
681.3957	0.025373
682.0905	0.023011
682.7854	0.021556
683.4803	0.023201
684.1754	0.025521
684.8705	0.027736
685.5658	0.032312
686.2611	0.032165
686.9565	0.032038
687.6520	0.030646
688.3476	0.031047
689.0433	0.026512
689.7390	0.026344
690.4349	0.023433
691.1308	0.028685
691.8269	0.028685
692.5230	0.027398
693.2192	0.029381
693.9155	0.027567
694.6119	0.024951
695.3083	0.026386
696.0049	0.022146
696.7016	0.025141
697.3983	0.030077
698.0951	0.027293
698.7920	0.028010
699.4890	0.023834
700.1861	0.022399
700.8833	0.021050
701.5806	0.019320
702.2779	0.021134
702.9753	0.023665
703.6729	0.021007
704.3705	0.020227
705.0682	0.013625
705.7660	0.018497
706.4638	0.022821
707.1618	0.027757
707.8599	0.029085
708.5580	0.027293
709.2562	0.024319
709.9545	0.025922
710.6529	0.027419
711.3514	0.023053
712.0500	0.021872
712.7486	0.020986
713.4474	0.023053
714.1462	0.025711
714.8451	0.025373
715.5441	0.024403
716.2432	0.021345
716.9424	0.020079
717.6416	0.019552
718.3410	0.022378
719.0404	0.021282
719.7399	0.021978
720.4395	0.020881
721.1392	0.022399
721.8390	0.021155
722.5388	0.020311
723.2388	0.018033
723.9388	0.020902
724.6389	0.019700
725.3391	0.024994
726.0394	0.023644
726.7398	0.025183
727.4403	0.022716
728.1408	0.025816
728.8414	0.025310
729.5421	0.027356
730.2429	0.027736
730.9438	0.031110
731.6448	0.031574
732.3458	0.028769
733.0470	0.033409
733.7482	0.032608
734.4495	0.038767
735.1509	0.035181
735.8524	0.037142
736.5539	0.034443
737.2556	0.036932
737.9573	0.031363
738.6591	0.028811
739.3610	0.036594
740.0630	0.031406
740.7651	0.026955
741.4672	0.024994
742.1695	0.026470
742.8718	0.025858
743.5742	0.023285
744.2767	0.020649
744.9792	0.022336
745.6819	0.020522
746.3846	0.018708
747.0874	0.020881
747.7903	0.022357
748.4933	0.020543
749.1964	0.023264
749.8995	0.024023
750.6028	0.029803
751.3061	0.026512
752.0095	0.031237
752.7130	0.025289
753.4166	0.026386
754.1202	0.031152
754.8239	0.030920
755.5278	0.029043
756.2317	0.033219
756.9356	0.037375
757.6397	0.046486
758.3438	0.039652
759.0481	0.039674
759.7524	0.044314
760.4568	0.046360
761.1613	0.046233
761.8658	0.039463
762.5705	0.034696
763.2752	0.036552
763.9800	0.037185
764.6849	0.040665
765.3898	0.041972
766.0949	0.035666
766.8000	0.030920
767.5052	0.030646
768.2105	0.030309
768.9159	0.036531
769.6214	0.033283
770.3269	0.029845
771.0325	0.035097
771.7382	0.032840
772.4440	0.029043
773.1499	0.028896
773.8558	0.026639
774.5618	0.023454
775.2679	0.022041
775.9741	0.019573
776.6804	0.017970
777.3868	0.018497
778.0932	0.017633
778.7997	0.020796
779.5063	0.022969
780.2130	0.021345
780.9197	0.022041
781.6265	0.025880
782.3335	0.025648
783.0405	0.024298
783.7475	0.025036
784.4547	0.022547
785.1619	0.020986
785.8692	0.021092
786.5766	0.021366
787.2841	0.020733
787.9917	0.021303
788.6993	0.023306
789.4070	0.022863
790.1148	0.019826
790.8227	0.017422
791.5306	0.017126
792.2387	0.018371
792.9468	0.015692
793.6550	0.016894
794.3632	0.022885
795.0716	0.025626
795.7800	0.020269
796.4885	0.017358
797.1971	0.014785
797.9058	0.017801
798.6145	0.016662
799.3233	0.017485
800.0322	0.014764
800.7412	0.013288
801.4503	0.013098
802.1594	0.012233
802.8686	0.010145
803.5779	0.013035
804.2873	0.013562
804.9968	0.013203
805.7063	0.013731
806.4159	0.016135
807.1256	0.016768
807.8354	0.017105
808.5452	0.016578
809.2551	0.015924
809.9651	0.013921
810.6752	0.014005
811.3853	0.013478
812.0956	0.011115
812.8059	0.009618
813.5163	0.014363
814.2267	0.013499
814.9373	0.013836
815.6479	0.010272
816.3586	0.009829
817.0694	0.011115
817.7802	0.009133
818.4912	0.010461
819.2022	0.009555
819.9133	0.007741
820.6244	0.008584
821.3357	0.012191
822.0470	0.008479
822.7584	0.009639
823.4698	0.008394
824.1814	0.009491
824.8930	0.008816
825.6047	0.009934
826.3165	0.008521
827.0283	0.009133
827.7402	0.009280
828.4522	0.009871
829.1643	0.010440
829.8765	0.007952
830.5887	0.009196
831.3010	0.007171
832.0134	0.005631
832.7259	0.007087
833.4384	0.006306
834.1510	0.006096
834.8637	0.007909
835.5765	0.008205
836.2893	0.006665
837.0022	0.004640
837.7152	0.004788
838.4283	0.004535
839.1414	0.005821
839.8546	0.005125
840.5679	0.004471
841.2813	0.003860
841.9947	0.003902
842.7082	0.003839
843.4218	0.002784
844.1355	0.003986
844.8492	0.003923
845.5631	0.004408
846.2770	0.003775
846.9909	0.004429
847.7050	0.004872
848.4191	0.003881
849.1333	0.004640
849.8475	0.004935
850.5619	0.003818
851.2763	0.004324
851.9908	0.004577
852.7053	0.005779
853.4200	0.008837
854.1347	0.010588
854.8495	0.010778
855.5643	0.009597
856.2792	0.009280
856.9942	0.009449
857.7093	0.007024
858.4245	0.007213
859.1397	0.005589
859.8550	0.005737
860.5704	0.004914
861.2858	0.004303
862.0013	0.004851
862.7169	0.003691
863.4326	0.005189
864.1483	0.005842
864.8642	0.003122
865.5800	0.004493
866.2960	0.003037
867.0120	0.003881
867.7281	0.004619
868.4443	0.004282
869.1606	0.003354
869.8769	0.004071
870.5933	0.002636
871.3097	0.005610
872.0263	0.004493
872.7429	0.002995
873.4596	0.002995
874.1763	0.003944
874.8932	0.003354
875.6101	0.004493
876.3270	0.003248
877.0441	0.004450
877.7612	0.005421
878.4784	0.004514
879.1957	0.004957
879.9130	0.005399
880.6304	0.006728
881.3479	0.004851
882.0654	0.005463
882.7831	0.003438
883.5007	0.004703
884.2185	0.004535
884.9363	0.003733
885.6542	0.003986
886.3722	0.004978
887.0903	0.002911
887.8084	0.003944
888.5266	0.003501
889.2448	0.002320
889.9632	0.002447
890.6816	0.003122
891.4001	0.004113
892.1186	0.004830
892.8372	0.002109
893.5559	0.002953
894.2747	0.003670
894.9935	0.003079
895.7124	0.003670
896.4314	0.004999
897.1504	0.004725
897.8695	0.003185
898.5887	0.004999
899.3079	0.004767
900.0272	0.001413
900.7466	0.004851
901.4661	0.002426
902.1856	0.003100
902.9052	0.002447
903.6249	0.003586
904.3446	0.002763
905.0644	0.004387
905.7843	0.004239
906.5043	0.004914
907.2243	0.003016
907.9444	0.003438
908.6645	0.001751
909.3847	0.003354
910.1050	0.001624
910.8254	0.003016
911.5458	0.001940
912.2663	0.003501
912.9869	0.003290
913.7075	0.002658
914.4283	0.001266
915.1490	0.001940
915.8699	0.002236
916.5908	0.002468
917.3118	0.003164
918.0328	0.002826
918.7539	0.002194
919.4751	0.002489
920.1964	0.002172
920.9177	0.003248
921.6391	0.002004
922.3606	0.002383
923.0821	0.001835
923.8037	0.003375
924.5254	0.002004
925.2471	0.001055
925.9689	0.001181
926.6908	0.001708
927.4127	0.000759
928.1347	0.003122
928.8568	0.002510
929.5789	0.001033
930.3011	0.002130
931.0234	0.001202
931.7457	0.000654
932.4681	0.000295
933.1906	0.001835
933.9131	0.002679
934.6358	0.001772
935.3584	0.001793
936.0812	0.001012
936.8040	0.002953
937.5269	0.002826
938.2498	0.000991
938.9728	0.000907
939.6959	0.000127
940.4190	0.001476
941.1422	0.000991
941.8655	0.001561
942.5889	-0.000253
943.3123	0.001118
944.0357	0.000865
944.7593	0.001371
945.4829	0.001033
946.2066	0.000865
946.9303	0.000063
947.6541	0.002151
948.3780	-0.000654
949.1019	0.002594
949.8259	0.000127
950.5500	0.000633
951.2741	0.001645
951.9983	0.001814
952.7226	0.002636
953.4469	0.001476
954.1713	-0.000569
954.8958	0.001603
955.6203	0.000675
956.3449	0.000844
957.0696	0.001856
957.7943	0.001751
958.5191	0.002426
959.2439	0.000801
959.9688	0.000907
960.6938	0.001455
961.4189	-0.000232
962.1440	0.000907
962.8692	-0.001139
963.5944	0.000928
964.3197	-0.000105
965.0451	0.001329
965.7705	-0.000105
966.4960	0.000633
967.2216	0.000127
967.9472	0.001455
968.6729	0.000443
969.3987	0.000169
970.1245	-0.000021
970.8504	0.000991
971.5763	-0.000569
972.3023	0.000949
973.0284	0.000063
973.7545	0.000105
974.4807	0.001413
975.2070	0.001835
975.9333	0.000274
976.6597	0.000928
977.3862	-0.000612
978.1127	0.001244
978.8393	0.000000
979.5659	0.001287
980.2926	0.000949
981.0194	-0.000253
981.7462	0.001118
982.4731	-0.000148
983.2001	-0.000612
983.9271	0.001582
984.6542	-0.000380
985.3814	-0.000443
986.1086	0.000738
986.8358	-0.000084
987.5632	0.000464
988.2906	-0.000443
989.0180	0.000063
989.7456	0.001139
990.4732	-0.000042
991.2008	0.000401
991.9285	-0.000359
992.6563	0.000612
993.3841	-0.000485
994.1120	0.001097
994.8400	-0.000527
995.5680	0.001498
996.2961	0.000823
997.0242	0.000042
997.7524	0.000042
998.4807	0.001202
999.2090	0.001139
999.9374	0.000190
1000.67	0.001582
1001.39	-0.000063
1002.12	0.000422
1002.85	0.000337
1003.58	-0.000105
1004.31	0.000591
1005.04	0.000422
1005.77	0.001898
1006.5	0.000380
1007.22	0.001708
1007.95	-0.000021
1008.68	-0.000105
1009.41	0.000253
1010.14	-0.000527
1010.87	0.000359
1011.6	-0.000190
1012.33	0.001519
1013.06	0.002151
1013.79	0.000359
1014.52	-0.000316
1015.25	0.000823
1015.98	0.000084
1016.71	0.002320
1017.44	-0.000738
1018.17	0.000738
1018.9	-0.000738
1019.63	0.000000
1020.36	0.000000
1021.09	0.000738
1021.82	0.000359
1022.55	-0.000527
1023.03	-0.000823