File: Auto_Polymerization/Spectra/MRG-061-F-4_spectra_while_stopped/spectrum_2025-06-20_08-03-15.txt
# Wavelength (nm)	Intensity (a.u.)
197.7802	0.001790
198.3922	0.000842
199.0044	0.001537
199.6168	0.000378
200.2292	0.001432
200.8418	0.001348
201.4546	0.000378
202.0674	0.000040
202.6805	-0.000023
203.2936	0.000799
203.9069	0.000968
204.5203	-0.000613
205.1338	0.001727
205.7475	0.000694
206.3614	-0.000213
206.9753	0.001537
207.5894	-0.000887
208.2036	0.001727
208.8180	-0.000149
209.4325	0.000462
210.0471	0.001516
210.6618	0.002107
211.2767	0.000884
211.8918	-0.000297
212.5069	0.000842
213.1222	0.001158
213.7376	0.001263
214.3532	-0.000866
214.9689	0.000525
215.5847	0.001432
216.2007	0.001116
216.8168	0.001326
217.4330	0.001158
218.0494	0.000230
218.6659	0.001348
219.2825	0.001031
219.8992	-0.000445
220.5161	-0.000318
221.1332	0.001305
221.7503	0.000251
222.3676	0.000019
222.9850	0.001811
223.6026	0.001453
224.2203	0.000926
224.8381	-0.000487
225.4561	0.000399
226.0742	0.000652
226.6924	0.000968
227.3107	0.000104
227.9292	0.000251
228.5478	-0.000065
229.1666	0.000378
229.7855	0.000884
230.4045	0.001495
231.0236	0.000715
231.6429	-0.000908
232.2623	0.001263
232.8818	0.001432
233.5015	0.000378
234.1213	0.001095
234.7413	0.001179
235.3613	0.000736
235.9815	0.000652
236.6018	0.000104
237.2223	0.000230
237.8429	0.001179
238.4636	-0.000023
239.0845	0.000146
239.7055	-0.000107
240.3266	0.000420
240.9478	0.001832
241.5692	0.001622
242.1907	0.000610
242.8124	-0.000318
243.4341	0.001622
244.0560	0.000610
244.6781	0.000926
245.3002	0.002254
245.9225	0.000525
246.5449	-0.000276
247.1675	0.000884
247.7902	0.001116
248.4130	0.001116
249.0359	0.002022
249.6590	0.001010
250.2822	0.000378
250.9056	-0.000887
251.5290	0.000884
252.1526	0.001769
252.7763	0.001242
253.4002	0.002423
254.0242	0.000230
254.6483	0.001179
255.2725	-0.000149
255.8969	0.001685
256.5214	0.000989
257.1460	-0.000192
257.7708	0.001284
258.3957	0.001052
259.0207	0.000209
259.6459	0.000989
260.2711	0.000842
260.8965	0.000778
261.5221	0.001305
262.1477	0.000968
262.7735	0.001896
263.3995	0.001664
264.0255	0.000842
264.6517	0.001832
265.2780	0.000968
265.9044	0.001579
266.5310	-0.000192
267.1577	0.001263
267.7845	0.001200
268.4114	0.001432
269.0385	0.000736
269.6657	0.001432
270.2931	0.000652
270.9205	0.002128
271.5481	0.000504
272.1758	-0.000192
272.8037	0.000357
273.4316	0.001242
274.0597	0.001959
274.6880	0.001326
275.3163	0.000778
275.9448	0.000525
276.5734	0.000441
277.2022	0.001432
277.8310	-0.000044
278.4600	0.001706
279.0891	0.000820
279.7184	0.000546
280.3477	0.000736
280.9772	0.001854
281.6069	-0.000613
282.2366	-0.000128
282.8665	0.001558
283.4965	0.001179
284.1266	0.000631
284.7569	0.000926
285.3873	0.000673
286.0178	0.001769
286.6484	0.000019
287.2792	-0.000698
287.9101	0.000230
288.5411	0.001200
289.1723	0.003076
289.8035	-0.000192
290.4349	0.000926
291.0665	0.000905
291.6981	0.000652
292.3299	0.000546
292.9618	0.002149
293.5938	0.000525
294.2260	0.000399
294.8582	0.001622
295.4906	0.000694
296.1232	0.000736
296.7558	0.001622
297.3886	0.000652
298.0215	0.000399
298.6545	0.000863
299.2877	0.000083
299.9210	0.001390
300.5544	0.000209
301.1879	0.001179
301.8215	0.001390
302.4553	0.000040
303.0892	0.000462
303.7233	0.001664
304.3574	0.000631
304.9917	0.000441
305.6261	0.000399
306.2606	0.001305
306.8953	0.001073
307.5301	0.001010
308.1650	0.000799
308.8000	0.002043
309.4351	0.001558
310.0704	-0.000276
310.7058	0.000842
311.3413	0.000483
311.9770	-0.000866
312.6127	0.000652
313.2486	0.001411
313.8846	0.000378
314.5208	0.001875
315.1570	0.001980
315.7934	0.000420
316.4299	0.000652
317.0666	0.001622
317.7033	0.001200
318.3402	0.002170
318.9772	0.000778
319.6143	-0.000192
320.2516	0.002128
320.8890	0.001031
321.5265	0.001706
322.1641	0.000441
322.8018	0.000399
323.4397	0.002254
324.0777	0.001432
324.7158	0.001453
325.3540	0.002233
325.9924	0.001137
326.6308	0.001706
327.2694	0.001411
327.9082	0.000778
328.5470	0.000061
329.1860	0.000567
329.8251	0.000989
330.4643	0.000589
331.1036	0.000610
331.7431	0.001537
332.3826	0.000884
333.0223	0.001854
333.6622	0.000589
334.3021	0.001558
334.9422	-0.000128
335.5823	0.001200
336.2227	0.000504
336.8631	0.000589
337.5036	0.001158
338.1443	0.001221
338.7851	-0.000402
339.4260	0.000209
340.0670	0.000546
340.7082	0.000441
341.3495	0.002022
341.9909	0.000863
342.6324	0.000863
343.2740	0.000631
343.9158	0.000947
344.5577	-0.000655
345.1997	0.000842
345.8418	-0.000002
346.4840	0.000820
347.1264	0.000357
347.7689	0.000842
348.4115	0.000251
349.0542	0.000441
349.6971	0.001326
350.3400	0.000884
350.9831	0.000589
351.6263	-0.000065
352.2696	0.001326
352.9131	0.000715
353.5566	-0.000107
354.2003	0.001326
354.8441	0.002001
355.4881	0.000842
356.1321	0.001263
356.7763	0.000694
357.4206	0.000842
358.0650	0.001495
358.7095	0.001073
359.3541	0.000357
359.9989	0.001453
360.6438	0.000251
361.2888	0.000673
361.9339	0.000673
362.5791	0.001305
363.2245	-0.000213
363.8699	0.000631
364.5155	-0.000065
365.1612	-0.001288
365.8071	0.001200
366.4530	0.001558
367.0991	0.000778
367.7453	0.001242
368.3916	0.000209
369.0380	0.002655
369.6845	0.000884
370.3312	0.001917
370.9780	0.000504
371.6249	-0.000065
372.2719	0.001579
372.9190	0.000947
373.5663	0.000146
374.2136	0.000314
374.8611	0.001137
375.5087	0.001474
376.1564	0.001073
376.8043	-0.000234
377.4522	-0.000192
378.1003	0.000736
378.7485	0.000399
379.3968	-0.000339
380.0452	0.001643
380.6938	0.000293
381.3424	0.001010
381.9912	0.000441
382.6401	0.001073
383.2891	0.001179
383.9382	0.000483
384.5875	0.001601
385.2368	0.000546
385.8863	0.000947
386.5359	-0.000297
387.1856	0.002781
387.8355	0.001727
388.4854	0.002465
389.1355	0.002275
389.7856	0.002570
390.4359	0.003224
391.0863	0.003772
391.7369	0.004468
392.3875	0.004700
393.0383	0.006471
393.6891	0.005859
394.3401	0.006766
394.9912	0.008537
395.6425	0.008073
396.2938	0.009907
396.9453	0.008537
397.5968	0.012796
398.2485	0.012353
398.9003	0.015052
399.5522	0.014735
400.2043	0.013597
400.8564	0.014988
401.5087	0.015621
402.1610	0.014504
402.8135	0.017202
403.4661	0.015832
404.1189	0.019289
404.7717	0.017350
405.4246	0.020702
406.0777	0.019943
406.7309	0.018530
407.3842	0.016823
408.0376	0.018172
408.6911	0.020175
409.3448	0.021672
409.9985	0.020807
410.6524	0.021883
411.3064	0.020660
411.9605	0.020829
412.6147	0.021482
413.2690	0.022410
413.9234	0.023274
414.5780	0.022663
415.2326	0.022895
415.8874	0.022304
416.5423	0.023084
417.1973	0.024497
417.8524	0.023865
418.5077	0.022895
419.1630	0.023506
419.8185	0.023253
420.4741	0.024645
421.1298	0.027196
421.7856	0.030147
422.4415	0.030105
423.0975	0.027385
423.7536	0.026542
424.4099	0.025003
425.0663	0.026458
425.7228	0.024560
426.3793	0.022157
427.0361	0.022853
427.6929	0.025783
428.3498	0.023654
429.0068	0.025488
429.6640	0.025319
430.3213	0.030316
430.9787	0.029220
431.6362	0.025762
432.2938	0.022410
432.9515	0.024012
433.6093	0.025699
434.2673	0.027638
434.9253	0.025994
435.5835	0.024434
436.2418	0.024898
436.9001	0.025425
437.5586	0.024455
438.2173	0.024560
438.8760	0.025636
439.5348	0.024581
440.1938	0.024307
440.8528	0.024139
441.5120	0.026879
442.1713	0.029156
442.8307	0.025678
443.4902	0.024539
444.1498	0.029030
444.8095	0.026458
445.4694	0.025614
446.1293	0.025087
446.7894	0.024961
447.4496	0.024307
448.1098	0.023654
448.7702	0.021714
449.4307	0.023127
450.0914	0.020892
450.7521	0.023042
451.4129	0.020660
452.0739	0.020554
452.7349	0.017603
453.3961	0.018720
454.0574	0.018130
454.7188	0.017961
455.3803	0.017582
456.0419	0.017413
456.7036	0.018172
457.3654	0.015473
458.0274	0.018299
458.6894	0.015621
459.3516	0.016844
460.0138	0.016464
460.6762	0.015769
461.3387	0.015747
462.0013	0.016043
462.6640	0.015052
463.3268	0.014630
463.9897	0.014019
464.6528	0.014208
465.3159	0.016506
465.9792	0.016759
466.6425	0.014693
467.3060	0.012733
467.9696	0.011594
468.6333	0.010814
469.2970	0.010034
469.9610	0.009233
470.6250	0.008706
471.2891	0.008179
471.9533	0.010013
472.6177	0.008727
473.2821	0.009380
473.9467	0.007398
474.6113	0.007145
475.2761	0.008453
475.9410	0.008874
476.6060	0.006850
477.2711	0.008642
477.9363	0.008432
478.6016	0.007167
479.2670	0.005902
479.9325	0.006682
480.5982	0.007483
481.2639	0.006028
481.9298	0.005691
482.5957	0.007082
483.2618	0.005986
483.9280	0.005986
484.5943	0.005353
485.2606	0.006555
485.9271	0.013133
486.5937	0.014525
487.2605	0.009739
487.9273	0.006112
488.5942	0.005649
489.2612	0.005712
489.9284	0.003730
490.5956	0.003899
491.2630	0.003329
491.9304	0.004805
492.5980	0.003730
493.2657	0.004405
493.9334	0.004109
494.6013	0.004447
495.2693	0.003456
495.9374	0.003561
496.6056	0.003667
497.2739	0.004278
497.9423	0.004384
498.6109	0.004299
499.2795	0.003498
499.9482	0.002781
500.6171	0.002908
501.2860	0.002486
501.9551	0.002591
502.6242	0.004278
503.2935	0.003498
503.9628	0.003983
504.6323	0.001748
505.3019	0.003097
505.9716	0.003540
506.6414	0.003835
507.3113	0.003203
507.9813	0.003856
508.6514	0.003287
509.3216	0.004152
509.9919	0.003245
510.6623	0.004109
511.3329	0.001769
512.0035	0.004131
512.6742	0.002739
513.3451	0.002929
514.0160	0.001854
514.6871	0.002887
515.3582	0.002170
516.0295	0.003034
516.7008	0.001158
517.3723	0.003161
518.0439	0.001601
518.7155	0.003329
519.3873	0.003182
520.0592	0.003730
520.7312	0.002718
521.4033	0.002107
522.0755	0.004700
522.7478	0.003772
523.4202	0.003920
524.0927	0.003119
524.7653	0.003709
525.4380	0.004004
526.1108	0.005143
526.7837	0.002613
527.4568	0.004278
528.1299	0.003372
528.8031	0.004953
529.4765	0.005016
530.1499	0.005332
530.8234	0.004890
531.4971	0.004510
532.1708	0.005733
532.8447	0.004278
533.5186	0.005374
534.1927	0.007061
534.8668	0.005965
535.5411	0.007546
536.2155	0.006724
536.8899	0.006408
537.5645	0.005353
538.2392	0.008516
538.9139	0.009212
539.5888	0.009191
540.2638	0.007841
540.9389	0.009591
541.6140	0.009971
542.2893	0.010645
542.9647	0.012964
543.6402	0.011446
544.3158	0.012058
544.9915	0.012986
545.6673	0.013281
546.3432	0.011931
547.0192	0.014461
547.6953	0.014546
548.3715	0.016781
549.0478	0.017265
549.7242	0.016528
550.4007	0.016169
551.0773	0.013745
551.7540	0.015326
552.4308	0.017771
553.1077	0.018994
553.7847	0.020196
554.4618	0.019353
555.1390	0.018488
555.8163	0.020955
556.4937	0.022621
557.1712	0.021503
557.8488	0.020259
558.5266	0.023949
559.2044	0.021714
559.8823	0.021145
560.5603	0.025593
561.2384	0.028714
561.9166	0.028714
562.5949	0.029726
563.2733	0.029178
563.9519	0.029367
564.6305	0.033415
565.3092	0.033858
565.9880	0.037358
566.6669	0.036493
567.3459	0.039930
568.0250	0.045011
568.7043	0.051357
569.3836	0.061814
570.0630	0.079693
570.7425	0.086566
571.4221	0.098141
572.1018	0.109252
572.7816	0.108451
573.4615	0.104382
574.1415	0.127742
574.8216	0.143428
575.5018	0.145494
576.1821	0.133245
576.8626	0.141024
577.5431	0.153611
578.2237	0.204886
578.9044	0.175264
579.5851	0.157174
580.2660	0.169592
580.9470	0.165165
581.6281	0.245070
582.3093	0.258353
582.9906	0.216545
583.6720	0.167800
584.3535	0.154855
585.0351	0.170541
585.7167	0.193501
586.3985	0.178763
587.0804	0.166345
587.7624	0.189389
588.4445	0.166662
589.1266	0.157195
589.8089	0.131094
590.4913	0.127320
591.1737	0.112667
591.8563	0.107734
592.5389	0.110180
593.2217	0.163014
593.9046	0.162909
594.5875	0.143217
595.2705	0.160126
595.9537	0.149816
596.6369	0.123631
597.3203	0.115640
598.0037	0.120553
598.6872	0.113363
599.3709	0.154054
600.0546	0.144440
600.7384	0.153274
601.4223	0.152852
602.1064	0.140308
602.7905	0.135163
603.4747	0.149774
604.1590	0.146590
604.8434	0.132338
605.5279	0.126878
606.2125	0.146485
606.8972	0.128417
607.5819	0.129956
608.2668	0.124896
608.9518	0.116294
609.6369	0.108324
610.3220	0.123525
611.0073	0.115176
611.6927	0.109484
612.3781	0.106385
613.0637	0.103475
613.7493	0.101620
614.4351	0.105394
615.1209	0.102885
615.8068	0.108915
616.4929	0.099975
617.1790	0.092195
617.8652	0.088843
618.5515	0.088105
619.2379	0.076615
619.9244	0.075371
620.6110	0.080136
621.2977	0.066896
621.9845	0.063923
622.6714	0.067844
623.3584	0.070416
624.0454	0.073115
624.7326	0.071386
625.4199	0.070922
626.1072	0.067338
626.7947	0.060128
627.4822	0.058800
628.1698	0.055258
628.8576	0.047773
629.5454	0.051273
630.2333	0.052032
630.9213	0.048553
631.6094	0.042523
632.2976	0.041132
632.9859	0.038370
633.6743	0.035060
634.3628	0.036620
635.0514	0.034216
635.7400	0.033879
636.4288	0.037063
637.1177	0.036641
637.8066	0.033141
638.4957	0.034997
639.1848	0.034997
639.8740	0.030063
640.5633	0.031962
641.2528	0.028675
641.9423	0.026103
642.6319	0.024619
643.3216	0.023936
644.0113	0.025917
644.7012	0.023806
645.3912	0.022970
646.0812	0.020967
646.7714	0.021794
647.4616	0.020370
648.1520	0.022719
648.8424	0.028644
649.5329	0.029153
650.2236	0.026709
650.9143	0.025019
651.6051	0.022001
652.2960	0.025018
652.9870	0.027881
653.6780	0.027796
654.3692	0.030879
655.0605	0.032385
655.7518	0.387769
656.4433	1.000000
657.1348	0.883078
657.8264	0.498142
658.5181	0.355043
659.2099	0.287478
659.9018	0.098056
660.5938	0.027899
661.2859	0.020092
661.9781	0.016153
662.6704	0.018957
663.3627	0.018198
664.0552	0.016562
664.7477	0.018700
665.4403	0.020910
666.1330	0.020720
666.8259	0.018293
667.5188	0.016449
668.2117	0.019490
668.9048	0.017729
669.5980	0.018889
670.2913	0.018826
670.9846	0.019395
671.6781	0.022094
672.3716	0.026352
673.0652	0.029852
673.7589	0.026268
674.4527	0.023084
675.1466	0.022578
675.8406	0.020407
676.5347	0.021925
677.2288	0.017603
677.9231	0.022389
678.6174	0.025172
679.3119	0.025193
680.0064	0.030147
680.7010	0.030042
681.3957	0.026584
682.0905	0.028840
682.7854	0.026205
683.4803	0.025108
684.1754	0.026563
684.8705	0.030927
685.5658	0.033521
686.2611	0.038496
686.9565	0.035313
687.6520	0.036641
688.3476	0.034891
689.0433	0.032762
689.7390	0.030421
690.4349	0.026774
691.1308	0.027955
691.8269	0.030506
692.5230	0.031497
693.2192	0.029051
693.9155	0.031328
694.6119	0.028503
695.3083	0.027976
696.0049	0.025235
696.7016	0.024708
697.3983	0.034006
698.0951	0.034174
698.7920	0.029473
699.4890	0.029789
700.1861	0.027934
700.8833	0.026542
701.5806	0.025193
702.2779	0.025361
702.9753	0.026605
703.6729	0.024645
704.3705	0.023759
705.0682	0.021503
705.7660	0.020554
706.4638	0.022347
707.1618	0.029431
707.8599	0.031497
708.5580	0.031834
709.2562	0.030400
709.9545	0.028777
710.6529	0.029346
711.3514	0.027617
712.0500	0.025361
712.7486	0.022473
713.4474	0.026626
714.1462	0.028081
714.8451	0.029030
715.5441	0.029409
716.2432	0.027069
716.9424	0.021377
717.6416	0.023169
718.3410	0.024919
719.0404	0.024223
719.7399	0.025340
720.4395	0.022684
721.1392	0.025762
721.8390	0.024371
722.5388	0.024602
723.2388	0.023485
723.9388	0.022621
724.6389	0.022789
725.3391	0.026057
726.0394	0.026584
726.7398	0.028714
727.4403	0.025087
728.1408	0.027849
728.8414	0.029220
729.5421	0.027849
730.2429	0.029578
730.9438	0.032066
731.6448	0.035734
732.3458	0.034997
733.0470	0.033816
733.7482	0.034469
734.4495	0.042270
735.1509	0.040668
735.8524	0.039508
736.5539	0.039761
737.2556	0.039192
737.9573	0.037822
738.6591	0.033521
739.3610	0.035545
740.0630	0.038159
740.7651	0.034975
741.4672	0.031518
742.1695	0.027449
742.8718	0.029178
743.5742	0.024328
744.2767	0.026268
744.9792	0.024244
745.6819	0.025003
746.3846	0.023738
747.0874	0.022347
747.7903	0.026943
748.4933	0.024033
749.1964	0.024834
749.8995	0.030337
750.6028	0.033015
751.3061	0.031813
752.0095	0.033985
752.7130	0.031771
753.4166	0.028882
754.1202	0.034680
754.8239	0.032677
755.5278	0.034216
756.2317	0.035250
756.9356	0.042333
757.6397	0.046845
758.3438	0.049544
759.0481	0.045095
759.7524	0.049228
760.4568	0.050999
761.1613	0.049607
761.8658	0.045095
762.5705	0.041743
763.2752	0.041364
763.9800	0.040352
764.6849	0.047077
765.3898	0.047372
766.0949	0.043641
766.8000	0.036957
767.5052	0.032129
768.2105	0.034132
768.9159	0.038876
769.6214	0.038623
770.3269	0.036578
771.0325	0.037400
771.7382	0.037990
772.4440	0.033373
773.1499	0.033436
773.8558	0.030674
774.5618	0.029599
775.2679	0.027069
775.9741	0.023675
776.6804	0.023401
777.3868	0.021292
778.0932	0.020428
778.7997	0.021630
779.5063	0.027744
780.2130	0.025235
780.9197	0.023991
781.6265	0.027069
782.3335	0.028714
783.0405	0.030168
783.7475	0.029831
784.4547	0.026648
785.1619	0.023633
785.8692	0.024750
786.5766	0.022958
787.2841	0.025193
787.9917	0.024223
788.6993	0.024898
789.4070	0.026205
790.1148	0.023063
790.8227	0.020576
791.5306	0.020070
792.2387	0.020681
792.9468	0.017497
793.6550	0.020344
794.3632	0.023569
795.0716	0.027702
795.7800	0.025256
796.4885	0.022178
797.1971	0.018467
797.9058	0.019732
798.6145	0.017961
799.3233	0.018552
800.0322	0.017898
800.7412	0.016991
801.4503	0.016970
802.1594	0.015494
802.8686	0.015031
803.5779	0.015494
804.2873	0.014757
804.9968	0.013239
805.7063	0.015811
806.4159	0.018193
807.1256	0.018699
807.8354	0.018467
808.5452	0.019479
809.2551	0.018678
809.9651	0.017308
810.6752	0.017012
811.3853	0.016865
812.0956	0.013787
812.8059	0.011636
813.5163	0.012648
814.2267	0.016000
814.9373	0.016022
815.6479	0.011889
816.3586	0.010983
817.0694	0.011742
817.7802	0.013386
818.4912	0.011995
819.2022	0.011236
819.9133	0.010287
820.6244	0.011615
821.3357	0.013555
822.0470	0.012880
822.7584	0.010687
823.4698	0.011636
824.1814	0.008537
824.8930	0.010645
825.6047	0.009739
826.3165	0.012669
827.0283	0.010814
827.7402	0.012227
828.4522	0.011109
829.1643	0.012437
829.8765	0.010962
830.5887	0.009907
831.3010	0.008727
832.0134	0.007715
832.7259	0.006091
833.4384	0.007883
834.1510	0.007525
834.8637	0.009971
835.5765	0.008052
836.2893	0.009401
837.0022	0.007335
837.7152	0.006239
838.4283	0.006787
839.1414	0.006682
839.8546	0.005880
840.5679	0.007188
841.2813	0.005965
841.9947	0.005227
842.7082	0.003835
843.4218	0.006850
844.1355	0.003814
844.8492	0.004679
845.5631	0.004489
846.2770	0.006492
846.9909	0.004362
847.7050	0.005543
848.4191	0.005185
849.1333	0.005311
849.8475	0.005290
850.5619	0.005079
851.2763	0.003350
851.9908	0.004510
852.7053	0.006597
853.4200	0.010814
854.1347	0.012332
854.8495	0.011931
855.5643	0.011172
856.2792	0.009739
856.9942	0.009507
857.7093	0.008326
858.4245	0.011004
859.1397	0.008685
859.8550	0.007947
860.5704	0.006935
861.2858	0.006892
862.0013	0.005206
862.7169	0.003372
863.4326	0.005311
864.1483	0.005543
864.8642	0.005880
865.5800	0.004489
866.2960	0.005248
867.0120	0.004531
867.7281	0.004489
868.4443	0.004088
869.1606	0.005459
869.8769	0.003793
870.5933	0.002760
871.3097	0.004278
872.0263	0.003962
872.7429	0.005522
873.4596	0.004426
874.1763	0.004299
874.8932	0.006218
875.6101	0.005543
876.3270	0.006555
877.0441	0.005353
877.7612	0.003603
878.4784	0.006703
879.1957	0.006260
879.9130	0.006892
880.6304	0.007904
881.3479	0.007630
882.0654	0.005902
882.7831	0.006344
883.5007	0.005796
884.2185	0.004953
884.9363	0.004953
885.6542	0.005965
886.3722	0.005079
887.0903	0.005649
887.8084	0.005058
888.5266	0.006281
889.2448	0.003899
889.9632	0.004826
890.6816	0.004025
891.4001	0.003519
892.1186	0.004067
892.8372	0.005543
893.5559	0.004299
894.2747	0.005649
894.9935	0.004552
895.7124	0.003456
896.4314	0.004109
897.1504	0.005100
897.8695	0.003920
898.5887	0.004573
899.3079	0.004531
900.0272	0.003625
900.7466	0.004405
901.4661	0.005079
902.1856	0.004721
902.9052	0.005248
903.6249	0.003962
904.3446	0.004721
905.0644	0.003350
905.7843	0.004868
906.5043	0.004890
907.2243	0.004679
907.9444	0.004362
908.6645	0.004341
909.3847	0.002275
910.1050	0.003646
910.8254	0.003034
911.5458	0.004004
912.2663	0.004067
912.9869	0.004868
913.7075	0.003582
914.4283	0.004341
915.1490	0.003097
915.8699	0.004531
916.5908	0.002971
917.3118	0.004637
918.0328	0.003561
918.7539	0.004067
919.4751	0.003119
920.1964	0.002971
920.9177	0.002950
921.6391	0.003477
922.3606	0.003119
923.0821	0.003540
923.8037	0.002760
924.5254	0.003983
925.2471	0.002444
925.9689	0.002697
926.6908	0.001390
927.4127	0.003856
928.1347	0.002570
928.8568	0.003245
929.5789	0.000694
930.3011	0.003287
931.0234	0.002866
931.7457	0.002507
932.4681	0.002423
933.1906	0.004763
933.9131	0.002781
934.6358	0.002570
935.3584	0.002107
936.0812	0.003603
936.8040	0.001832
937.5269	0.002549
938.2498	0.001221
938.9728	0.002486
939.6959	0.000778
940.4190	0.002212
941.1422	0.002233
941.8655	0.002043
942.5889	0.002001
943.3123	0.000293
944.0357	0.001221
944.7593	0.002107
945.4829	0.001558
946.2066	0.001938
946.9303	0.000357
947.6541	0.002718
948.3780	0.001579
949.1019	0.002170
949.8259	0.001221
950.5500	0.000251
951.2741	0.002064
951.9983	0.001601
952.7226	0.002444
953.4469	0.000652
954.1713	0.001052
954.8958	0.001664
955.6203	0.002022
956.3449	0.000778
957.0696	0.002064
957.7943	0.001116
958.5191	0.000968
959.2439	0.000230
959.9688	0.000820
960.6938	0.001200
961.4189	0.000104
962.1440	0.000272
962.8692	0.000293
963.5944	0.001137
964.3197	0.000293
965.0451	0.001938
965.7705	0.002128
966.4960	0.001474
967.2216	0.001516
967.9472	0.000525
968.6729	0.001263
969.3987	0.001474
970.1245	0.001811
970.8504	0.001411
971.5763	0.000799
972.3023	-0.000255
973.0284	0.000040
973.7545	0.000125
974.4807	0.001579
975.2070	-0.000445
975.9333	0.001031
976.6597	0.001052
977.3862	0.001558
978.1127	0.001369
978.8393	0.000125
979.5659	0.001052
980.2926	0.000399
981.0194	0.000019
981.7462	0.000715
982.4731	0.001010
983.2001	0.001095
983.9271	0.001348
984.6542	0.000989
985.3814	-0.000634
986.1086	0.000293
986.8358	0.000610
987.5632	0.001453
988.2906	0.000905
989.0180	0.000884
989.7456	0.000926
990.4732	0.000314
991.2008	0.001200
991.9285	0.001369
992.6563	-0.000740
993.3841	0.001263
994.1120	0.001474
994.8400	0.000188
995.5680	0.000146
996.2961	0.000104
997.0242	0.001790
997.7524	0.000820
998.4807	0.001727
999.2090	-0.000044
999.9374	-0.000149
1000.67	-0.000086
1001.39	0.001706
1002.12	-0.000613
1002.85	0.001348
1003.58	0.000799
1004.31	0.000989
1005.04	0.000462
1005.77	0.002444
1006.5	0.000989
1007.22	0.001432
1007.95	-0.000044
1008.68	0.001516
1009.41	-0.000234
1010.14	0.000652
1010.87	-0.000234
1011.6	0.000146
1012.33	0.001073
1013.06	0.002085
1013.79	0.000357
1014.52	0.000778
1015.25	0.000905
1015.98	0.001179
1016.71	-0.000740
1017.44	0.000757
1018.17	0.001558
1018.9	0.000715
1019.63	0.000167
1020.36	0.000083
1021.09	0.001200
1021.82	-0.000529
1022.55	0.001516
1023.03	-0.000002