File: Auto_Polymerization/Spectra/MRG-061-F-4_spectra_while_stopped/spectrum_2025-06-20_08-08-22.txt
# Wavelength (nm)	Intensity (a.u.)
197.7802	0.000202
198.3922	-0.000262
199.0044	-0.000494
199.6168	0.001193
200.2292	0.000392
200.8418	0.000603
201.4546	0.001088
202.0674	-0.001000
202.6805	0.000919
203.2936	0.000814
203.9069	0.002311
204.5203	0.000582
205.1338	0.001215
205.7475	0.000434
206.3614	0.000476
206.9753	0.000202
207.5894	0.000624
208.2036	0.000540
208.8180	0.000392
209.4325	-0.000473
210.0471	0.001151
210.6618	-0.000515
211.2767	-0.000684
211.8918	0.000033
212.5069	0.001151
213.1222	0.000202
213.7376	0.000835
214.3532	0.000160
214.9689	0.000708
215.5847	-0.000494
216.2007	0.001341
216.8168	-0.000156
217.4330	-0.001000
218.0494	-0.000325
218.6659	0.000392
219.2825	0.000624
219.8992	-0.000515
220.5161	-0.000578
221.1332	0.000772
221.7503	-0.000473
222.3676	0.001594
222.9850	0.000497
223.6026	0.001193
224.2203	-0.001274
224.8381	0.000139
225.4561	-0.001359
226.0742	0.000118
226.6924	0.000392
227.3107	-0.000431
227.9292	-0.000304
228.5478	0.001932
229.1666	-0.000135
229.7855	0.000265
230.4045	0.001130
231.0236	0.000729
231.6429	0.000076
232.2623	0.000202
232.8818	0.001425
233.5015	0.000329
234.1213	0.001025
234.7413	0.002607
235.3613	-0.000536
235.9815	0.000476
236.6018	0.000392
237.2223	0.001172
237.8429	-0.000620
238.4636	0.001278
239.0845	-0.000072
239.7055	0.002100
240.3266	-0.000156
240.9478	0.001215
241.5692	0.000139
242.1907	-0.000178
242.8124	0.000772
243.4341	0.000666
244.0560	0.001510
244.6781	0.000076
245.3002	0.000286
245.9225	0.001046
246.5449	0.001299
247.1675	0.000244
247.7902	0.000265
248.4130	0.001109
249.0359	0.001784
249.6590	-0.000557
250.2822	-0.000346
250.9056	0.000434
251.5290	0.000392
252.1526	-0.000431
252.7763	-0.000220
253.4002	0.001172
254.0242	-0.000768
254.6483	0.001679
255.2725	0.000708
255.8969	0.000497
256.5214	0.001636
257.1460	0.000118
257.7708	0.000012
258.3957	0.000708
259.0207	0.000139
259.6459	0.000286
260.2711	0.000160
260.8965	0.000265
261.5221	-0.000937
262.1477	0.000603
262.7735	-0.000241
263.3995	0.000350
264.0255	0.000877
264.6517	0.000729
265.2780	0.000054
265.9044	0.001657
266.5310	-0.000135
267.1577	0.000518
267.7845	0.001679
268.4114	0.000708
269.0385	0.000434
269.6657	0.000645
270.2931	-0.000768
270.9205	0.000751
271.5481	0.001362
272.1758	0.000708
272.8037	0.000540
273.4316	0.001742
274.0597	0.000961
274.6880	0.001046
275.3163	0.001742
275.9448	-0.000494
276.5734	0.000687
277.2022	0.000244
277.8310	-0.001211
278.4600	0.000983
279.0891	0.001531
279.7184	-0.000852
280.3477	0.001004
280.9772	0.000434
281.6069	-0.000304
282.2366	0.001109
282.8665	-0.000178
283.4965	0.001531
284.1266	-0.001148
284.7569	-0.000072
285.3873	0.000518
286.0178	-0.000452
286.6484	-0.000473
287.2792	-0.000747
287.9101	0.000624
288.5411	0.000919
289.1723	0.000983
289.8035	0.000265
290.4349	-0.001548
291.0665	0.000919
291.6981	0.000497
292.3299	0.000476
292.9618	0.001679
293.5938	0.000181
294.2260	-0.000325
294.8582	-0.000958
295.4906	-0.000114
296.1232	0.001046
296.7558	-0.000093
297.3886	0.001109
298.0215	0.001215
298.6545	0.001341
299.2877	0.000139
299.9210	0.000434
300.5544	0.000033
301.1879	0.002164
301.8215	0.000856
302.4553	0.000139
303.0892	-0.000093
303.7233	0.001067
304.3574	0.000961
304.9917	0.001763
305.6261	0.000772
306.2606	0.001341
306.8953	0.001784
307.5301	0.000160
308.1650	0.000518
308.8000	0.001700
309.4351	-0.000051
310.0704	-0.000304
310.7058	0.001088
311.3413	0.001826
311.9770	0.000434
312.6127	0.000708
313.2486	-0.000515
313.8846	0.000729
314.5208	0.000582
315.1570	0.000054
315.7934	0.000919
316.4299	0.000392
317.0666	0.000308
317.7033	0.000708
318.3402	0.000181
318.9772	0.000076
319.6143	0.000940
320.2516	0.000561
320.8890	-0.000114
321.5265	0.000054
322.1641	0.000244
322.8018	0.000097
323.4397	-0.000452
324.0777	0.001889
324.7158	-0.001127
325.3540	0.001447
325.9924	0.000139
326.6308	0.000160
327.2694	-0.000536
327.9082	-0.000367
328.5470	0.000118
329.1860	0.000729
329.8251	-0.001274
330.4643	0.001236
331.1036	0.000160
331.7431	0.000265
332.3826	-0.000431
333.0223	0.000139
333.6622	-0.000178
334.3021	0.000624
334.9422	0.000687
335.5823	-0.000072
336.2227	-0.000199
336.8631	0.000308
337.5036	-0.001084
338.1443	-0.000747
338.7851	0.000054
339.4260	0.001130
340.0670	-0.000473
340.7082	0.000076
341.3495	-0.000789
341.9909	0.001046
342.6324	-0.000810
343.2740	-0.000051
343.9158	0.000329
344.5577	0.001573
345.1997	-0.000642
345.8418	0.000350
346.4840	-0.001485
347.1264	-0.000431
347.7689	0.000118
348.4115	0.000139
349.0542	0.000603
349.6971	0.000518
350.3400	-0.001696
350.9831	-0.000874
351.6263	0.000012
352.2696	0.000751
352.9131	-0.000114
353.5566	0.000919
354.2003	-0.000199
354.8441	0.000540
355.4881	0.000181
356.1321	0.000729
356.7763	0.000814
357.4206	0.001046
358.0650	0.000223
358.7095	0.001763
359.3541	-0.000620
359.9989	0.000708
360.6438	0.000286
361.2888	0.000455
361.9339	0.000729
362.5791	0.001025
363.2245	-0.001021
363.8699	-0.000852
364.5155	-0.000578
365.1612	0.001046
365.8071	0.000687
366.4530	0.000603
367.0991	-0.000283
367.7453	0.000898
368.3916	-0.001021
369.0380	-0.000473
369.6845	-0.000135
370.3312	0.001278
370.9780	-0.000220
371.6249	-0.000304
372.2719	0.000076
372.9190	-0.000072
373.5663	-0.000072
374.2136	0.002037
374.8611	0.000329
375.5087	0.000413
376.1564	-0.000726
376.8043	0.000645
377.4522	-0.000220
378.1003	0.000308
378.7485	0.000244
379.3968	0.000751
380.0452	0.000961
380.6938	0.001299
381.3424	0.000012
381.9912	0.001025
382.6401	0.000961
383.2891	0.000540
383.9382	0.001025
384.5875	0.001404
385.2368	0.000413
385.8863	0.001700
386.5359	0.001130
387.1856	0.001088
387.8355	0.001636
388.4854	0.001784
389.1355	0.001215
389.7856	0.002881
390.4359	0.002881
391.0863	0.002902
391.7369	0.003619
392.3875	0.005053
393.0383	0.006023
393.6891	0.004674
394.3401	0.006762
394.9912	0.007394
395.6425	0.007373
396.2938	0.008934
396.9453	0.009714
397.5968	0.012667
398.2485	0.010052
398.9003	0.013933
399.5522	0.014249
400.2043	0.014565
400.8564	0.013279
401.5087	0.013469
402.1610	0.014544
402.8135	0.015219
403.4661	0.015177
404.1189	0.017455
404.7717	0.018341
405.4246	0.018974
406.0777	0.017624
406.7309	0.018045
407.3842	0.018256
408.0376	0.019859
408.6911	0.020598
409.3448	0.018995
409.9985	0.019501
410.6524	0.019163
411.3064	0.019606
411.9605	0.019248
412.6147	0.021800
413.2690	0.022496
413.9234	0.021125
414.5780	0.021905
415.2326	0.021589
415.8874	0.021209
416.5423	0.021631
417.1973	0.021631
417.8524	0.020598
418.5077	0.023909
419.1630	0.023276
419.8185	0.022601
420.4741	0.025828
421.1298	0.027326
421.7856	0.028338
422.4415	0.026250
423.0975	0.026756
423.7536	0.025048
424.4099	0.023255
425.0663	0.023719
425.7228	0.024035
426.3793	0.022158
427.0361	0.022011
427.6929	0.023972
428.3498	0.024985
429.0068	0.023803
429.6640	0.026988
430.3213	0.027916
430.9787	0.026166
431.6362	0.024183
432.2938	0.022728
432.9515	0.023614
433.6093	0.022686
434.2673	0.025132
434.9253	0.023107
435.5835	0.023361
436.2418	0.024331
436.9001	0.025681
437.5586	0.022158
438.2173	0.020619
438.8760	0.025807
439.5348	0.025132
440.1938	0.022875
440.8528	0.022707
441.5120	0.027178
442.1713	0.027790
442.8307	0.024478
443.4902	0.027326
444.1498	0.025955
444.8095	0.025153
445.4694	0.024499
446.1293	0.023867
446.7894	0.023951
447.4496	0.023571
448.1098	0.023318
448.7702	0.021483
449.4307	0.022053
450.0914	0.021589
450.7521	0.018214
451.4129	0.019754
452.0739	0.018974
452.7349	0.018383
453.3961	0.017729
454.0574	0.016801
454.7188	0.017813
455.3803	0.016738
456.0419	0.016295
456.7036	0.014945
457.3654	0.018320
458.0274	0.018130
458.6894	0.018214
459.3516	0.015831
460.0138	0.015810
460.6762	0.015156
461.3387	0.014544
462.0013	0.012583
462.6640	0.013237
463.3268	0.014249
463.9897	0.011570
464.6528	0.013975
465.3159	0.011233
465.9792	0.012773
466.6425	0.013131
467.3060	0.011001
467.9696	0.010832
468.6333	0.009904
469.2970	0.008829
469.9610	0.008660
470.6250	0.009103
471.2891	0.007542
471.9533	0.007436
472.6177	0.008027
473.2821	0.007879
473.9467	0.007289
474.6113	0.008871
475.2761	0.008301
475.9410	0.007605
476.6060	0.008217
477.2711	0.005981
477.9363	0.006508
478.6016	0.006487
479.2670	0.007078
479.9325	0.006508
480.5982	0.008470
481.2639	0.004484
481.9298	0.005517
482.5957	0.004210
483.2618	0.005749
483.9280	0.005412
484.5943	0.006403
485.2606	0.004737
485.9271	0.017244
486.5937	0.011887
487.2605	0.006846
487.9273	0.006213
488.5942	0.004146
489.2612	0.004378
489.9284	0.003134
490.5956	0.005116
491.2630	0.003872
491.9304	0.003281
492.5980	0.003535
493.2657	0.003218
493.9334	0.004484
494.6013	0.003745
495.2693	0.002649
495.9374	0.004210
496.6056	0.004800
497.2739	0.003113
497.9423	0.003914
498.6109	0.003260
499.2795	0.002100
499.9482	0.003028
500.6171	0.003408
501.2860	0.003830
501.9551	0.002058
502.6242	0.003598
503.2935	0.003724
503.9628	0.003092
504.6323	0.002839
505.3019	0.001974
505.9716	0.002375
506.6414	0.001615
507.3113	0.003071
507.9813	0.002585
508.6514	0.001953
509.3216	0.001679
509.9919	0.003197
510.6623	0.003366
511.3329	0.001700
512.0035	0.003028
512.6742	0.003176
513.3451	0.001763
514.0160	0.002079
514.6871	0.001868
515.3582	0.003303
516.0295	0.001004
516.7008	0.002986
517.3723	0.001489
518.0439	0.003049
518.7155	0.002649
519.3873	0.002269
520.0592	0.003893
520.7312	0.002881
521.4033	0.002944
522.0755	0.002501
522.7478	0.002037
523.4202	0.002649
524.0927	0.002543
524.7653	0.003028
525.4380	0.003028
526.1108	0.003092
526.7837	0.003492
527.4568	0.002459
528.1299	0.003682
528.8031	0.003408
529.4765	0.003830
530.1499	0.002607
530.8234	0.004188
531.4971	0.003767
532.1708	0.004969
532.8447	0.004294
533.5186	0.005580
534.1927	0.005391
534.8668	0.006530
535.5411	0.004463
536.2155	0.007331
536.8899	0.005897
537.5645	0.007247
538.2392	0.006994
538.9139	0.008639
539.5888	0.008807
540.2638	0.008048
540.9389	0.009693
541.6140	0.009503
542.2893	0.010031
542.9647	0.011486
543.6402	0.010347
544.3158	0.013785
544.9915	0.010242
545.6673	0.014418
546.3432	0.011423
547.0192	0.011718
547.6953	0.014481
548.3715	0.016611
549.0478	0.015557
549.7242	0.014523
550.4007	0.015029
551.0773	0.014882
551.7540	0.014080
552.4308	0.018720
553.1077	0.019248
553.7847	0.020977
554.4618	0.017392
555.1390	0.018952
555.8163	0.020682
556.4937	0.022032
557.1712	0.020049
557.8488	0.021399
558.5266	0.020197
559.2044	0.021104
559.8823	0.020893
560.5603	0.026672
561.2384	0.029772
561.9166	0.028148
562.5949	0.027241
563.2733	0.028444
563.9519	0.030532
564.6305	0.030384
565.3092	0.033780
565.9880	0.031291
566.6669	0.034434
567.3459	0.041794
568.0250	0.047194
568.7043	0.055525
569.3836	0.062527
570.0630	0.084990
570.7425	0.085116
571.4221	0.101779
572.1018	0.108443
572.7816	0.096485
573.4615	0.113885
574.1415	0.129303
574.8216	0.142527
575.5018	0.145164
576.1821	0.129619
576.8626	0.148264
577.5431	0.155857
578.2237	0.193020
578.9044	0.162606
579.5851	0.163429
580.2660	0.172604
580.9470	0.164146
581.6281	0.263191
582.3093	0.247689
582.9906	0.195720
583.6720	0.157523
584.3535	0.156701
585.0351	0.184457
585.7167	0.192219
586.3985	0.164758
587.0804	0.174101
587.7624	0.188359
588.4445	0.161952
589.1266	0.141894
589.8089	0.128860
590.4913	0.121309
591.1737	0.103867
591.8563	0.107579
592.5389	0.123524
593.2217	0.166023
593.9046	0.156912
594.5875	0.137697
595.2705	0.162058
595.9537	0.136706
596.6369	0.113758
597.3203	0.121478
598.0037	0.116184
598.6872	0.125401
599.3709	0.151386
600.0546	0.146492
600.7384	0.147463
601.4223	0.151807
602.1064	0.134344
602.7905	0.138878
603.4747	0.151133
604.1590	0.142949
604.8434	0.128016
605.5279	0.133479
606.2125	0.137676
606.8972	0.124515
607.5819	0.129366
608.2668	0.118504
608.9518	0.116332
609.6369	0.105364
610.3220	0.125675
611.0073	0.109477
611.6927	0.109414
612.3781	0.103234
613.0637	0.104710
613.7493	0.100007
614.4351	0.104035
615.1209	0.104056
615.8068	0.105027
616.4929	0.091486
617.1790	0.089440
617.8652	0.089166
618.5515	0.081404
619.2379	0.072904
619.9244	0.075456
620.6110	0.076532
621.2977	0.060608
621.9845	0.064784
622.6714	0.069445
623.3584	0.072187
624.0454	0.069361
624.7326	0.072736
625.4199	0.067231
626.1072	0.060988
626.7947	0.055715
627.4822	0.058393
628.1698	0.051665
628.8576	0.046392
629.5454	0.051349
630.2333	0.046160
630.9213	0.046582
631.6094	0.041288
632.2976	0.041436
632.9859	0.035108
633.6743	0.034370
634.3628	0.035172
635.0514	0.033674
635.7400	0.033252
636.4288	0.036986
637.1177	0.036036
637.8066	0.032472
638.4957	0.036184
639.1848	0.033189
639.8740	0.030174
640.5633	0.029161
641.2528	0.027580
641.9423	0.026572
642.6319	0.025148
643.3216	0.022126
644.0113	0.022826
644.7012	0.020686
645.3912	0.020913
646.0812	0.021168
646.7714	0.020196
647.4616	0.020903
648.1520	0.025572
648.8424	0.029519
649.5329	0.028836
650.2236	0.023496
650.9143	0.023896
651.6051	0.022701
652.2960	0.025211
652.9870	0.022604
653.6780	0.025400
654.3692	0.028493
655.0605	0.045670
655.7518	0.774392
656.4433	1.000000
657.1348	0.704354
657.8264	0.429950
658.5181	0.318447
659.2099	0.231558
659.9018	0.057323
660.5938	0.023163
661.2859	0.018571
661.9781	0.018564
662.6704	0.017366
663.3627	0.018030
664.0552	0.017872
664.7477	0.018407
665.4403	0.018640
666.1330	0.019042
666.8259	0.017578
667.5188	0.017881
668.2117	0.017294
668.9048	0.017877
669.5980	0.017307
670.2913	0.018510
670.9846	0.016696
671.6781	0.023002
672.3716	0.027073
673.0652	0.028169
673.7589	0.024710
674.4527	0.023107
675.1466	0.022011
675.8406	0.021167
676.5347	0.018552
677.2288	0.019691
677.9231	0.022369
678.6174	0.023424
679.3119	0.024816
680.0064	0.026145
680.7010	0.029013
681.3957	0.029182
682.0905	0.027115
682.7854	0.021905
683.4803	0.023150
684.1754	0.026398
684.8705	0.031312
685.5658	0.036669
686.2611	0.034982
686.9565	0.035699
687.6520	0.035108
688.3476	0.033738
689.0433	0.028718
689.7390	0.028718
690.4349	0.026609
691.1308	0.027811
691.8269	0.029836
692.5230	0.030068
693.2192	0.031354
693.9155	0.029266
694.6119	0.025681
695.3083	0.028549
696.0049	0.025217
696.7016	0.028317
697.3983	0.033695
698.0951	0.032050
698.7920	0.031354
699.4890	0.027916
700.1861	0.026039
700.8833	0.024816
701.5806	0.021568
702.2779	0.023044
702.9753	0.024795
703.6729	0.021884
704.3705	0.022032
705.0682	0.019796
705.7660	0.018446
706.4638	0.024099
707.1618	0.030194
707.8599	0.031417
708.5580	0.030004
709.2562	0.026503
709.9545	0.026398
710.6529	0.028296
711.3514	0.025322
712.0500	0.023867
712.7486	0.023719
713.4474	0.024078
714.1462	0.027305
714.8451	0.026545
715.5441	0.027621
716.2432	0.023466
716.9424	0.022897
717.6416	0.022433
718.3410	0.023297
719.0404	0.024900
719.7399	0.023192
720.4395	0.022601
721.1392	0.024310
721.8390	0.022390
722.5388	0.023150
723.2388	0.022475
723.9388	0.021589
724.6389	0.021209
725.3391	0.026967
726.0394	0.026946
726.7398	0.027494
727.4403	0.025533
728.1408	0.027220
728.8414	0.026356
729.5421	0.028401
730.2429	0.028064
730.9438	0.034602
731.6448	0.035108
732.3458	0.031987
733.0470	0.032725
733.7482	0.034834
734.4495	0.040255
735.1509	0.038525
735.8524	0.039390
736.5539	0.039432
737.2556	0.039411
737.9573	0.037365
738.6591	0.034581
739.3610	0.036395
740.0630	0.035383
740.7651	0.033506
741.4672	0.028844
742.1695	0.025491
742.8718	0.027958
743.5742	0.025217
744.2767	0.024478
744.9792	0.023487
745.6819	0.021167
746.3846	0.024457
747.0874	0.023107
747.7903	0.025976
748.4933	0.021673
749.1964	0.025491
749.8995	0.028676
750.6028	0.033105
751.3061	0.031122
752.0095	0.033358
752.7130	0.030173
753.4166	0.029372
754.1202	0.033906
754.8239	0.031924
755.5278	0.033316
756.2317	0.034729
756.9356	0.041225
757.6397	0.048459
758.3438	0.044241
759.0481	0.044768
759.7524	0.046920
760.4568	0.049598
761.1613	0.048966
761.8658	0.042701
762.5705	0.039727
763.2752	0.039770
763.9800	0.040761
764.6849	0.044789
765.3898	0.046561
766.0949	0.042364
766.8000	0.033590
767.5052	0.028528
768.2105	0.033801
768.9159	0.040613
769.6214	0.037534
770.3269	0.035446
771.0325	0.039221
771.7382	0.036880
772.4440	0.032514
773.1499	0.033716
773.8558	0.030616
774.5618	0.025069
775.2679	0.025406
775.9741	0.022032
776.6804	0.020787
777.3868	0.018510
778.0932	0.019079
778.7997	0.020598
779.5063	0.025681
780.2130	0.024141
780.9197	0.024858
781.6265	0.027980
782.3335	0.028633
783.0405	0.026735
783.7475	0.028233
784.4547	0.023192
785.1619	0.022411
785.8692	0.023698
786.5766	0.023424
787.2841	0.021779
787.9917	0.022728
788.6993	0.024267
789.4070	0.023171
790.1148	0.020893
790.8227	0.019670
791.5306	0.019670
792.2387	0.016780
792.9468	0.018573
793.6550	0.018594
794.3632	0.027389
795.0716	0.025512
795.7800	0.024879
796.4885	0.019163
797.1971	0.017497
797.9058	0.019100
798.6145	0.018277
799.3233	0.017181
800.0322	0.017054
800.7412	0.015493
801.4503	0.016569
802.1594	0.012752
802.8686	0.014818
803.5779	0.014228
804.2873	0.012667
804.9968	0.013827
805.7063	0.015936
806.4159	0.020534
807.1256	0.017982
807.8354	0.017877
808.5452	0.015936
809.2551	0.016337
809.9651	0.016696
810.6752	0.017497
811.3853	0.016021
812.0956	0.012224
812.8059	0.010917
813.5163	0.014586
814.2267	0.016885
814.9373	0.014565
815.6479	0.012730
816.3586	0.010769
817.0694	0.013216
817.7802	0.011338
818.4912	0.010347
819.2022	0.010136
819.9133	0.010368
820.6244	0.011381
821.3357	0.011317
822.0470	0.010832
822.7584	0.011106
823.4698	0.009166
824.1814	0.007436
824.8930	0.009525
825.6047	0.008976
826.3165	0.008196
827.0283	0.011697
827.7402	0.010558
828.4522	0.010031
829.1643	0.011064
829.8765	0.011064
830.5887	0.009208
831.3010	0.006825
832.0134	0.006867
832.7259	0.007711
833.4384	0.006445
834.1510	0.008765
834.8637	0.008807
835.5765	0.009103
836.2893	0.007732
837.0022	0.005665
837.7152	0.006487
838.4283	0.005138
839.1414	0.004210
839.8546	0.006909
840.5679	0.005728
841.2813	0.006192
841.9947	0.004568
842.7082	0.004526
843.4218	0.002902
844.1355	0.004863
844.8492	0.004188
845.5631	0.004948
846.2770	0.004125
846.9909	0.004294
847.7050	0.004315
848.4191	0.004800
849.1333	0.004652
849.8475	0.004041
850.5619	0.001805
851.2763	0.004083
851.9908	0.004231
852.7053	0.006909
853.4200	0.011676
854.1347	0.011634
854.8495	0.011022
855.5643	0.008723
856.2792	0.009588
856.9942	0.010284
857.7093	0.007837
858.4245	0.006319
859.1397	0.006972
859.8550	0.007183
860.5704	0.007226
861.2858	0.004568
862.0013	0.005412
862.7169	0.005201
863.4326	0.006023
864.1483	0.005032
864.8642	0.005327
865.5800	0.004927
866.2960	0.004062
867.0120	0.004378
867.7281	0.004357
868.4443	0.004167
869.1606	0.004231
869.8769	0.004252
870.5933	0.004357
871.3097	0.005812
872.0263	0.005159
872.7429	0.001889
873.4596	0.002775
874.1763	0.004526
874.8932	0.003977
875.6101	0.004378
876.3270	0.004484
877.0441	0.005159
877.7612	0.005011
878.4784	0.006593
879.1957	0.006234
879.9130	0.005011
880.6304	0.006677
881.3479	0.005327
882.0654	0.005665
882.7831	0.004631
883.5007	0.005644
884.2185	0.004969
884.9363	0.006508
885.6542	0.006087
886.3722	0.005749
887.0903	0.004210
887.8084	0.004716
888.5266	0.004990
889.2448	0.004420
889.9632	0.005095
890.6816	0.003977
891.4001	0.003767
892.1186	0.004969
892.8372	0.003999
893.5559	0.002543
894.2747	0.003872
894.9935	0.002564
895.7124	0.003788
896.4314	0.003767
897.1504	0.003745
897.8695	0.004906
898.5887	0.003408
899.3079	0.004484
900.0272	0.003134
900.7466	0.004104
901.4661	0.003535
902.1856	0.003745
902.9052	0.003387
903.6249	0.004062
904.3446	0.004547
905.0644	0.003366
905.7843	0.005391
906.5043	0.005032
907.2243	0.002965
907.9444	0.002670
908.6645	0.003155
909.3847	0.004273
910.1050	0.003218
910.8254	0.002459
911.5458	0.003999
912.2663	0.002712
912.9869	0.001172
913.7075	0.003535
914.4283	0.002649
915.1490	0.004231
915.8699	0.003703
916.5908	0.003661
917.3118	0.003324
918.0328	0.004125
918.7539	0.002543
919.4751	0.001784
920.1964	0.002459
920.9177	0.002607
921.6391	0.002480
922.3606	0.002100
923.0821	0.001383
923.8037	0.001911
924.5254	0.002121
925.2471	0.001447
925.9689	0.001573
926.6908	0.003071
927.4127	0.002164
928.1347	0.002965
928.8568	0.003281
929.5789	0.002965
930.3011	0.002143
931.0234	0.001742
931.7457	0.002585
932.4681	0.001889
933.1906	0.001615
933.9131	0.003324
934.6358	0.002375
935.3584	0.002100
936.0812	0.002037
936.8040	0.001278
937.5269	0.000160
938.2498	0.000772
938.9728	0.001299
939.6959	0.002353
940.4190	0.000076
941.1422	0.000097
941.8655	0.002037
942.5889	0.001362
943.3123	0.000076
944.0357	0.002923
944.7593	0.002269
945.4829	0.001995
946.2066	0.000265
946.9303	0.001700
947.6541	-0.000030
948.3780	0.001130
949.1019	0.003809
949.8259	-0.000473
950.5500	0.002164
951.2741	0.001763
951.9983	0.002396
952.7226	0.002459
953.4469	0.000476
954.1713	0.000540
954.8958	0.001447
955.6203	0.001320
956.3449	0.000666
957.0696	-0.000220
957.7943	0.001025
958.5191	0.000518
959.2439	0.001257
959.9688	0.002585
960.6938	0.000919
961.4189	0.000329
962.1440	0.000919
962.8692	0.001025
963.5944	0.000835
964.3197	0.001130
965.0451	0.000434
965.7705	0.001172
966.4960	0.000898
967.2216	-0.000009
967.9472	0.000329
968.6729	0.000772
969.3987	0.001594
970.1245	0.000687
970.8504	0.000054
971.5763	0.000983
972.3023	-0.000199
973.0284	-0.000705
973.7545	0.001932
974.4807	0.000033
975.2070	0.001510
975.9333	0.000139
976.6597	-0.000114
977.3862	0.000603
978.1127	0.000497
978.8393	0.001257
979.5659	0.000223
980.2926	-0.001084
981.0194	0.001257
981.7462	0.000202
982.4731	0.000497
983.2001	0.000223
983.9271	0.001299
984.6542	-0.000620
985.3814	0.001004
986.1086	0.001004
986.8358	0.001974
987.5632	0.000329
988.2906	0.000076
989.0180	0.001004
989.7456	-0.000452
990.4732	-0.001042
991.2008	0.000097
991.9285	0.002037
992.6563	0.001067
993.3841	0.000940
994.1120	0.001278
994.8400	-0.000916
995.5680	0.000308
996.2961	-0.001000
997.0242	0.000877
997.7524	-0.000536
998.4807	-0.000241
999.2090	-0.000726
999.9374	-0.000009
1000.67	0.001215
1001.39	-0.000093
1002.12	-0.000367
1002.85	0.000012
1003.58	0.000582
1004.31	0.000286
1005.04	0.001299
1005.77	0.000476
1006.5	0.001109
1007.22	0.000603
1007.95	0.001742
1008.68	0.001784
1009.41	-0.000051
1010.14	-0.000220
1010.87	0.001278
1011.6	-0.000199
1012.33	-0.000642
1013.06	-0.001106
1013.79	0.000561
1014.52	0.001278
1015.25	0.000729
1015.98	0.000603
1016.71	0.000729
1017.44	-0.001190
1018.17	-0.000536
1018.9	0.000308
1019.63	0.001974
1020.36	-0.000747
1021.09	0.001320
1021.82	0.000097
1022.55	-0.000831
1023.03	-0.000262