File: Auto_Polymerization/Spectra/MRG-061-F5_spectra_while_stopped_with_alu_foil/spectrum_2025-06-20_09-42-28.txt
# Wavelength (nm)	Intensity (a.u.)
197.7802	-0.000303
198.3922	-0.001527
199.0044	0.000900
199.6168	0.000922
200.2292	-0.000577
200.8418	-0.001210
201.4546	-0.001126
202.0674	-0.001316
202.6805	0.000711
203.2936	0.000246
203.9069	0.000035
204.5203	-0.001020
205.1338	0.000922
205.7475	-0.000936
206.3614	0.001491
206.9753	-0.000619
207.5894	0.000668
208.2036	-0.000535
208.8180	-0.000598
209.4325	-0.001273
210.0471	0.000056
210.6618	0.000310
211.2767	-0.000324
211.8918	-0.000049
212.5069	-0.000303
213.1222	0.001006
213.7376	-0.000007
214.3532	0.000035
214.9689	-0.000303
215.5847	-0.000281
216.2007	0.000732
216.8168	-0.000598
217.4330	-0.000682
218.0494	-0.001611
218.6659	0.000162
219.2825	-0.000830
219.8992	0.000267
220.5161	-0.000893
221.1332	0.001365
221.7503	-0.000155
222.3676	0.000120
222.9850	0.000795
223.6026	0.000605
224.2203	-0.000682
224.8381	-0.000598
225.4561	-0.000239
226.0742	0.000795
226.6924	0.000668
227.3107	0.001301
227.9292	0.000373
228.5478	-0.001759
229.1666	0.000352
229.7855	0.000310
230.4045	-0.000429
231.0236	-0.000324
231.6429	-0.000556
232.2623	-0.000978
232.8818	0.000141
233.5015	0.000204
234.1213	-0.000345
234.7413	-0.000007
235.3613	-0.000788
235.9815	0.000584
236.6018	-0.000682
237.2223	0.001154
237.8429	0.000267
238.4636	-0.001337
239.0845	0.001027
239.7055	0.000647
240.3266	-0.000113
240.9478	-0.000070
241.5692	0.000647
242.1907	0.000795
242.8124	0.001154
243.4341	-0.000070
244.0560	0.000732
244.6781	-0.000028
245.3002	-0.001210
245.9225	0.000605
246.5449	-0.000851
247.1675	-0.000176
247.7902	-0.000113
248.4130	0.001449
249.0359	-0.000113
249.6590	0.001133
250.2822	-0.000978
250.9056	0.000288
251.5290	0.000563
252.1526	0.000352
252.7763	0.000288
253.4002	-0.000007
254.0242	-0.001210
254.6483	-0.000303
255.2725	-0.000134
255.8969	0.001850
256.5214	-0.001041
257.1460	-0.001189
257.7708	-0.000366
258.3957	0.000879
259.0207	-0.000345
259.6459	-0.000091
260.2711	0.000310
260.8965	0.000478
261.5221	-0.000598
262.1477	0.000035
262.7735	0.000225
263.3995	-0.000197
264.0255	-0.000408
264.6517	-0.001062
265.2780	0.000499
265.9044	0.000225
266.5310	-0.000725
267.1577	0.000162
267.7845	-0.000535
268.4114	-0.000788
269.0385	-0.000408
269.6657	-0.000471
270.2931	0.000310
270.9205	0.000246
271.5481	-0.001147
272.1758	-0.001126
272.8037	-0.000640
273.4316	-0.000598
274.0597	-0.000429
274.6880	-0.000091
275.3163	0.000711
275.9448	-0.000091
276.5734	-0.000345
277.2022	0.000457
277.8310	-0.000176
278.4600	0.001238
279.0891	-0.001316
279.7184	-0.000408
280.3477	-0.000830
280.9772	0.001048
281.6069	-0.000619
282.2366	0.000457
282.8665	-0.000366
283.4965	0.001133
284.1266	-0.000260
284.7569	-0.000387
285.3873	-0.001463
286.0178	0.000120
286.6484	0.000141
287.2792	0.000183
287.9101	-0.001083
288.5411	0.000711
289.1723	-0.000936
289.8035	0.000056
290.4349	-0.000936
291.0665	0.000056
291.6981	-0.000978
292.3299	-0.000746
292.9618	-0.000598
293.5938	-0.000049
294.2260	-0.001147
294.8582	-0.000028
295.4906	0.000542
296.1232	0.002230
296.7558	-0.001569
297.3886	-0.000176
298.0215	0.000183
298.6545	0.001491
299.2877	-0.000303
299.9210	0.001154
300.5544	-0.000893
301.1879	-0.000260
301.8215	-0.001020
302.4553	0.001280
303.0892	-0.000514
303.7233	-0.001041
304.3574	-0.000218
304.9917	0.000267
305.6261	0.000668
306.2606	0.001280
306.8953	-0.001062
307.5301	-0.000197
308.1650	0.000288
308.8000	-0.000007
309.4351	-0.000746
310.0704	0.000120
310.7058	-0.000661
311.3413	0.001323
311.9770	-0.000366
312.6127	-0.001548
313.2486	-0.001527
313.8846	-0.000176
314.5208	-0.001906
315.1570	0.001069
315.7934	-0.000176
316.4299	0.000098
317.0666	-0.000176
317.7033	0.000668
318.3402	-0.000788
318.9772	0.000120
319.6143	-0.000197
320.2516	0.000098
320.8890	-0.000303
321.5265	0.000288
322.1641	0.000098
322.8018	-0.000260
323.4397	0.000626
324.0777	0.000985
324.7158	-0.000324
325.3540	0.000077
325.9924	0.000900
326.6308	0.000331
327.2694	0.000120
327.9082	0.000795
328.5470	-0.000915
329.1860	0.001048
329.8251	0.000014
330.4643	0.000056
331.1036	-0.001294
331.7431	0.000647
332.3826	0.000267
333.0223	-0.000366
333.6622	-0.000471
334.3021	-0.000345
334.9422	-0.000260
335.5823	-0.000577
336.2227	0.000331
336.8631	0.000415
337.5036	0.000352
338.1443	0.000542
338.7851	-0.000535
339.4260	0.000310
340.0670	0.001217
340.7082	0.000373
341.3495	-0.001611
341.9909	0.000774
342.6324	0.000732
343.2740	0.000584
343.9158	-0.000682
344.5577	0.001048
345.1997	0.000584
345.8418	-0.001400
346.4840	-0.001527
347.1264	0.000331
347.7689	-0.001041
348.4115	0.000056
349.0542	-0.001041
349.6971	-0.000134
350.3400	-0.000514
350.9831	-0.000281
351.6263	0.000584
352.2696	-0.000619
352.9131	-0.000387
353.5566	0.001048
354.2003	-0.000830
354.8441	0.000035
355.4881	-0.000471
356.1321	-0.000049
356.7763	-0.000661
357.4206	0.000394
358.0650	0.000626
358.7095	-0.000281
359.3541	0.000077
359.9989	0.000183
360.6438	-0.000281
361.2888	0.000267
361.9339	-0.000936
362.5791	-0.000598
363.2245	0.000795
363.8699	0.000120
364.5155	-0.000303
365.1612	0.000225
365.8071	-0.000978
366.4530	-0.000471
367.0991	0.001133
367.7453	-0.000155
368.3916	-0.000577
369.0380	0.001724
369.6845	-0.000767
370.3312	0.000415
370.9780	0.000605
371.6249	-0.000176
372.2719	-0.000197
372.9190	0.000457
373.5663	-0.000535
374.2136	-0.000619
374.8611	-0.000176
375.5087	0.000499
376.1564	0.000035
376.8043	0.000689
377.4522	0.000837
378.1003	-0.000303
378.7485	-0.000535
379.3968	0.000098
380.0452	-0.000113
380.6938	0.000563
381.3424	-0.001695
381.9912	0.000563
382.6401	-0.000535
383.2891	-0.001484
383.9382	0.000162
384.5875	-0.000450
385.2368	-0.000661
385.8863	0.000141
386.5359	0.000098
387.1856	0.000077
387.8355	-0.001041
388.4854	0.000858
389.1355	0.000267
389.7856	0.000689
390.4359	0.001259
391.0863	0.001534
391.7369	0.002272
392.3875	0.001618
393.0383	0.000732
393.6891	0.001470
394.3401	0.002547
394.9912	0.002526
395.6425	0.003433
396.2938	0.003201
396.9453	0.005037
397.5968	0.004805
398.2485	0.004678
398.9003	0.006156
399.5522	0.006029
400.2043	0.005628
400.8564	0.007443
401.5087	0.006958
402.1610	0.007000
402.8135	0.007696
403.4661	0.008097
404.1189	0.010060
404.7717	0.007949
405.4246	0.010967
406.0777	0.009870
406.7309	0.010377
407.3842	0.010123
408.0376	0.009131
408.6911	0.010989
409.3448	0.012445
409.9985	0.011833
410.6524	0.012508
411.3064	0.012508
411.9605	0.011959
412.6147	0.013205
413.2690	0.012930
413.9234	0.015104
414.5780	0.012782
415.2326	0.013205
415.8874	0.015041
416.5423	0.014998
417.1973	0.015273
417.8524	0.014682
418.5077	0.015843
419.1630	0.014365
419.8185	0.013964
420.4741	0.016349
421.1298	0.017700
421.7856	0.019557
422.4415	0.019473
423.0975	0.019114
423.7536	0.018628
424.4099	0.018586
425.0663	0.017911
425.7228	0.017426
426.3793	0.016729
427.0361	0.016117
427.6929	0.018565
428.3498	0.017869
429.0068	0.020296
429.6640	0.021710
430.3213	0.021478
430.9787	0.019768
431.6362	0.018987
432.2938	0.017172
432.9515	0.018502
433.6093	0.021393
434.2673	0.018291
434.9253	0.020148
435.5835	0.020296
436.2418	0.019705
436.9001	0.021393
437.5586	0.018987
438.2173	0.019768
438.8760	0.019895
439.5348	0.020844
440.1938	0.019388
440.8528	0.020866
441.5120	0.023820
442.1713	0.022723
442.8307	0.022533
443.4902	0.021077
444.1498	0.023314
444.8095	0.024411
445.4694	0.019705
446.1293	0.023229
446.7894	0.023525
447.4496	0.020190
448.1098	0.020380
448.7702	0.021942
449.4307	0.021077
450.0914	0.017468
450.7521	0.019093
451.4129	0.016096
452.0739	0.019114
452.7349	0.018122
453.3961	0.014408
454.0574	0.013563
454.7188	0.014429
455.3803	0.015020
456.0419	0.016011
456.7036	0.015484
457.3654	0.013964
458.0274	0.013922
458.6894	0.014196
459.3516	0.013711
460.0138	0.016856
460.6762	0.011938
461.3387	0.014766
462.0013	0.012424
462.6640	0.010799
463.3268	0.012107
463.9897	0.011094
464.6528	0.012972
465.3159	0.012424
465.9792	0.010967
466.6425	0.010946
467.3060	0.009912
467.9696	0.009722
468.6333	0.010461
469.2970	0.007949
469.9610	0.009321
470.6250	0.008414
471.2891	0.007612
471.9533	0.006282
472.6177	0.007337
473.2821	0.007802
473.9467	0.008435
474.6113	0.006472
475.2761	0.008393
475.9410	0.008709
476.6060	0.007105
477.2711	0.005902
477.9363	0.007021
478.6016	0.006662
479.2670	0.005311
479.9325	0.004636
480.5982	0.006240
481.2639	0.004573
481.9298	0.005354
482.5957	0.004826
483.2618	0.007232
483.9280	0.004931
484.5943	0.004995
485.2606	0.004995
485.9271	0.014640
486.5937	0.010925
487.2605	0.006746
487.9273	0.003454
488.5942	0.003517
489.2612	0.003306
489.9284	0.003285
490.5956	0.003792
491.2630	0.002969
491.9304	0.003159
492.5980	0.001491
493.2657	0.003011
493.9334	0.003264
494.6013	0.002146
495.2693	0.003475
495.9374	0.000964
496.6056	0.003011
497.2739	0.002948
497.9423	0.000964
498.6109	0.001618
499.2795	0.003285
499.9482	0.002905
500.6171	0.002209
501.2860	0.003412
501.9551	0.001935
502.6242	0.000879
503.2935	0.003391
503.9628	0.002399
504.6323	0.003095
505.3019	0.001217
505.9716	0.003602
506.6414	0.001555
507.3113	0.000985
507.9813	0.001702
508.6514	0.003159
509.3216	0.002800
509.9919	0.001534
510.6623	0.002019
511.3329	0.002737
512.0035	0.001745
512.6742	0.001766
513.3451	0.002441
514.0160	0.002715
514.6871	0.001133
515.3582	0.003391
516.0295	0.004172
516.7008	0.001618
517.3723	0.001491
518.0439	0.003053
518.7155	0.001913
519.3873	0.002779
520.0592	0.003623
520.7312	0.001259
521.4033	0.002462
522.0755	0.001745
522.7478	0.002082
523.4202	0.002589
524.0927	0.002737
524.7653	0.002673
525.4380	0.002209
526.1108	0.001808
526.7837	0.002483
527.4568	0.002589
528.1299	0.003391
528.8031	0.003665
529.4765	0.005797
530.1499	0.004805
530.8234	0.003243
531.4971	0.003496
532.1708	0.003433
532.8447	0.004678
533.5186	0.004298
534.1927	0.005058
534.8668	0.006662
535.5411	0.007253
536.2155	0.007232
536.8899	0.006008
537.5645	0.005396
538.2392	0.006915
538.9139	0.007717
539.5888	0.008350
540.2638	0.006557
540.9389	0.007211
541.6140	0.009427
542.2893	0.009342
542.9647	0.009532
543.6402	0.010925
544.3158	0.011200
544.9915	0.009722
545.6673	0.011200
546.3432	0.011896
547.0192	0.014851
547.6953	0.014534
548.3715	0.017299
549.0478	0.014703
549.7242	0.014007
550.4007	0.013542
551.0773	0.013183
551.7540	0.012571
552.4308	0.017510
553.1077	0.017320
553.7847	0.018038
554.4618	0.018375
555.1390	0.019874
555.8163	0.020465
556.4937	0.021921
557.1712	0.022090
557.8488	0.022047
558.5266	0.020655
559.2044	0.021879
559.8823	0.021077
560.5603	0.027091
561.2384	0.026838
561.9166	0.026880
562.5949	0.027725
563.2733	0.028695
563.9519	0.030278
564.6305	0.030532
565.3092	0.033338
565.9880	0.034900
566.6669	0.033655
567.3459	0.042371
568.0250	0.046656
568.7043	0.052185
569.3836	0.063286
570.0630	0.085045
570.7425	0.087240
571.4221	0.101971
572.1018	0.114339
572.7816	0.101106
573.4615	0.113959
574.1415	0.131856
574.8216	0.144835
575.5018	0.143548
576.1821	0.130568
576.8626	0.145785
577.5431	0.158089
578.2237	0.203865
578.9044	0.169443
579.5851	0.166847
580.2660	0.175796
580.9470	0.167607
581.6281	0.269670
582.3093	0.257872
582.9906	0.199475
583.6720	0.155915
584.3535	0.162078
585.0351	0.187445
585.7167	0.195170
586.3985	0.170752
587.0804	0.176914
587.7624	0.190062
588.4445	0.166805
589.1266	0.147473
589.8089	0.133649
590.4913	0.124216
591.1737	0.107923
591.8563	0.108303
592.5389	0.126600
593.2217	0.171617
593.9046	0.161824
594.5875	0.143252
595.2705	0.163470
595.9537	0.145152
596.6369	0.119404
597.3203	0.121936
598.0037	0.118665
598.6872	0.126305
599.3709	0.152095
600.0546	0.150238
600.7384	0.151399
601.4223	0.153530
602.1064	0.141099
602.7905	0.140762
603.4747	0.157814
604.1590	0.145827
604.8434	0.127782
605.5279	0.136076
606.2125	0.147494
606.8972	0.129618
607.5819	0.134810
608.2668	0.124131
608.9518	0.120100
609.6369	0.109442
610.3220	0.125440
611.0073	0.115267
611.6927	0.115900
612.3781	0.106255
613.0637	0.111489
613.7493	0.104546
614.4351	0.106424
615.1209	0.103005
615.8068	0.109506
616.4929	0.098236
617.1790	0.094078
617.8652	0.089667
618.5515	0.086628
619.2379	0.078545
619.9244	0.076920
620.6110	0.079832
621.2977	0.060965
621.9845	0.067233
622.6714	0.070145
623.3584	0.072762
624.0454	0.072382
624.7326	0.078946
625.4199	0.068499
626.1072	0.066431
626.7947	0.056279
627.4822	0.060521
628.1698	0.051932
628.8576	0.049104
629.5454	0.052713
630.2333	0.050032
630.9213	0.044608
631.6094	0.045263
632.2976	0.041970
632.9859	0.037116
633.6743	0.036652
634.3628	0.035618
635.0514	0.032072
635.7400	0.034689
636.4288	0.039100
637.1177	0.037813
637.8066	0.033233
638.4957	0.036863
639.1848	0.034900
639.8740	0.032725
640.5633	0.031713
641.2528	0.027832
641.9423	0.025742
642.6319	0.025755
643.3216	0.024214
644.0113	0.024937
644.7012	0.022196
645.3912	0.021398
646.0812	0.022587
646.7714	0.020100
647.4616	0.019542
648.1520	0.022715
648.8424	0.027796
649.5329	0.026952
650.2236	0.026605
650.9143	0.023340
651.6051	0.023966
652.2960	0.026750
652.9870	0.026881
653.6780	0.028504
654.3692	0.028915
655.0605	0.047620
655.7518	0.801232
656.4433	1.000000
657.1348	0.739136
657.8264	0.451258
658.5181	0.333510
659.2099	0.244494
659.9018	0.061759
660.5938	0.024676
661.2859	0.018669
661.9781	0.017921
662.6704	0.018674
663.3627	0.019203
664.0552	0.019154
664.7477	0.017979
665.4403	0.019634
666.1330	0.020799
666.8259	0.017759
667.5188	0.019096
668.2117	0.016971
668.9048	0.017278
669.5980	0.016602
670.2913	0.018354
670.9846	0.018734
671.6781	0.025466
672.3716	0.029012
673.0652	0.028653
673.7589	0.023841
674.4527	0.023504
675.1466	0.021013
675.8406	0.022681
676.5347	0.019536
677.2288	0.019663
677.9231	0.023862
678.6174	0.024791
679.3119	0.024960
680.0064	0.030848
680.7010	0.029160
681.3957	0.028569
682.0905	0.028780
682.7854	0.025994
683.4803	0.027640
684.1754	0.029877
684.8705	0.032684
685.5658	0.036694
686.2611	0.037412
686.9565	0.037053
687.6520	0.037834
688.3476	0.034035
689.0433	0.031101
689.7390	0.029962
690.4349	0.026606
691.1308	0.029455
691.8269	0.031038
692.5230	0.031650
693.2192	0.032347
693.9155	0.031460
694.6119	0.028991
695.3083	0.029835
696.0049	0.024770
696.7016	0.028674
697.3983	0.031228
698.0951	0.033170
698.7920	0.031692
699.4890	0.030278
700.1861	0.024854
700.8833	0.023926
701.5806	0.023018
702.2779	0.024200
702.9753	0.026332
703.6729	0.022005
704.3705	0.024074
705.0682	0.019874
705.7660	0.019916
706.4638	0.024749
707.1618	0.030954
707.8599	0.031861
708.5580	0.030257
709.2562	0.029033
709.9545	0.027851
710.6529	0.029033
711.3514	0.026078
712.0500	0.026057
712.7486	0.023314
713.4474	0.024939
714.1462	0.029666
714.8451	0.028210
715.5441	0.029096
716.2432	0.027471
716.9424	0.023926
717.6416	0.020971
718.3410	0.025952
719.0404	0.025192
719.7399	0.022913
720.4395	0.024622
721.1392	0.025720
721.8390	0.024643
722.5388	0.024939
723.2388	0.022786
723.9388	0.023778
724.6389	0.020401
725.3391	0.027176
726.0394	0.025783
726.7398	0.028231
727.4403	0.024833
728.1408	0.028421
728.8414	0.030890
729.5421	0.031967
730.2429	0.030236
730.9438	0.035470
731.6448	0.035681
732.3458	0.033486
733.0470	0.034478
733.7482	0.036905
734.4495	0.044925
735.1509	0.040176
735.8524	0.039501
736.5539	0.041126
737.2556	0.041949
737.9573	0.035069
738.6591	0.034668
739.3610	0.037855
740.0630	0.036673
740.7651	0.033106
741.4672	0.028463
742.1695	0.028970
742.8718	0.029856
743.5742	0.024833
744.2767	0.023229
744.9792	0.026205
745.6819	0.021541
746.3846	0.023060
747.0874	0.023356
747.7903	0.026564
748.4933	0.022659
749.1964	0.027324
749.8995	0.031059
750.6028	0.034014
751.3061	0.034541
752.0095	0.032811
752.7130	0.029708
753.4166	0.032621
754.1202	0.035006
754.8239	0.033824
755.5278	0.034563
756.2317	0.036842
756.9356	0.043933
757.6397	0.048238
758.3438	0.046782
759.0481	0.046972
759.7524	0.047648
760.4568	0.052544
761.1613	0.052248
761.8658	0.044271
762.5705	0.039754
763.2752	0.043427
763.9800	0.040535
764.6849	0.051868
765.3898	0.046402
766.0949	0.042920
766.8000	0.035259
767.5052	0.031587
768.2105	0.035998
768.9159	0.041084
769.6214	0.038193
770.3269	0.035449
771.0325	0.039374
771.7382	0.037770
772.4440	0.034140
773.1499	0.033423
773.8558	0.030553
774.5618	0.026100
775.2679	0.028062
775.9741	0.023461
776.6804	0.022638
777.3868	0.018164
778.0932	0.020612
778.7997	0.023272
779.5063	0.025319
780.2130	0.022512
780.9197	0.025424
781.6265	0.030384
782.3335	0.028484
783.0405	0.026965
783.7475	0.030489
784.4547	0.024791
785.1619	0.023567
785.8692	0.022976
786.5766	0.024897
787.2841	0.023103
787.9917	0.025234
788.6993	0.024960
789.4070	0.023715
790.1148	0.020655
790.8227	0.020486
791.5306	0.018586
792.2387	0.019853
792.9468	0.017932
793.6550	0.020676
794.3632	0.025677
795.0716	0.028738
795.7800	0.023694
796.4885	0.020106
797.1971	0.017531
797.9058	0.019684
798.6145	0.020591
799.3233	0.021013
800.0322	0.017805
800.7412	0.015315
801.4503	0.016286
802.1594	0.015125
802.8686	0.012846
803.5779	0.015062
804.2873	0.013542
804.9968	0.014851
805.7063	0.015020
806.4159	0.019663
807.1256	0.021013
807.8354	0.019663
808.5452	0.019578
809.2551	0.017932
809.9651	0.017109
810.6752	0.015315
811.3853	0.014070
812.0956	0.012529
812.8059	0.013331
813.5163	0.012255
814.2267	0.015336
814.9373	0.014809
815.6479	0.011854
816.3586	0.010693
817.0694	0.012107
817.7802	0.012804
818.4912	0.010651
819.2022	0.008730
819.9133	0.011390
820.6244	0.013859
821.3357	0.012339
822.0470	0.011157
822.7584	0.009617
823.4698	0.008878
824.1814	0.009764
824.8930	0.007337
825.6047	0.011938
826.3165	0.009764
827.0283	0.010756
827.7402	0.011706
828.4522	0.008498
829.1643	0.009722
829.8765	0.009743
830.5887	0.008498
831.3010	0.007612
832.0134	0.005037
832.7259	0.007422
833.4384	0.006831
834.1510	0.008794
834.8637	0.008794
835.5765	0.009258
836.2893	0.007169
837.0022	0.005776
837.7152	0.006261
838.4283	0.006324
839.1414	0.005417
839.8546	0.006831
840.5679	0.006535
841.2813	0.006261
841.9947	0.004404
842.7082	0.004805
843.4218	0.003813
844.1355	0.004319
844.8492	0.003834
845.5631	0.007232
846.2770	0.003349
846.9909	0.003454
847.7050	0.004383
848.4191	0.003855
849.1333	0.003665
849.8475	0.005143
850.5619	0.003454
851.2763	0.003918
851.9908	0.004530
852.7053	0.006345
853.4200	0.010292
854.1347	0.010355
854.8495	0.011516
855.5643	0.010609
856.2792	0.011474
856.9942	0.009448
857.7093	0.007823
858.4245	0.007042
859.1397	0.007717
859.8550	0.006662
860.5704	0.005332
861.2858	0.005438
862.0013	0.005480
862.7169	0.003349
863.4326	0.004742
864.1483	0.004530
864.8642	0.004045
865.5800	0.003961
866.2960	0.005100
867.0120	0.004615
867.7281	0.003391
868.4443	0.004699
869.1606	0.003496
869.8769	0.004763
870.5933	0.005100
871.3097	0.004995
872.0263	0.004045
872.7429	0.002779
873.4596	0.004404
874.1763	0.004594
874.8932	0.005016
875.6101	0.004678
876.3270	0.005755
877.0441	0.003517
877.7612	0.004995
878.4784	0.004446
879.1957	0.006725
879.9130	0.005923
880.6304	0.007063
881.3479	0.005311
882.0654	0.004953
882.7831	0.003876
883.5007	0.005860
884.2185	0.006768
884.9363	0.005396
885.6542	0.004530
886.3722	0.005079
887.0903	0.003918
887.8084	0.004425
888.5266	0.003222
889.2448	0.004172
889.9632	0.003918
890.6816	0.003053
891.4001	0.004003
892.1186	0.005459
892.8372	0.004256
893.5559	0.004509
894.2747	0.003159
894.9935	0.004425
895.7124	0.003729
896.4314	0.002293
897.1504	0.002568
897.8695	0.004024
898.5887	0.003285
899.3079	0.004235
900.0272	0.001913
900.7466	0.004087
901.4661	0.004045
902.1856	0.003560
902.9052	0.003243
903.6249	0.003159
904.3446	0.002167
905.0644	0.004446
905.7843	0.002884
906.5043	0.004003
907.2243	0.002589
907.9444	0.002863
908.6645	0.004066
909.3847	0.002061
910.1050	0.003328
910.8254	0.003623
911.5458	0.002821
912.2663	0.003581
912.9869	0.002652
913.7075	0.003285
914.4283	0.001069
915.1490	0.002526
915.8699	0.002779
916.5908	0.002293
917.3118	0.002146
918.0328	0.004404
918.7539	0.002504
919.4751	0.001301
920.1964	0.002399
920.9177	0.002504
921.6391	0.001365
922.3606	0.003222
923.0821	0.002652
923.8037	0.003116
924.5254	0.001491
925.2471	0.003433
925.9689	0.002504
926.6908	0.003053
927.4127	0.000900
928.1347	0.001428
928.8568	0.001724
929.5789	0.001491
930.3011	0.001428
931.0234	0.002251
931.7457	0.001829
932.4681	0.002504
933.1906	0.001407
933.9131	0.000922
934.6358	0.001154
935.3584	0.002483
936.0812	0.000837
936.8040	0.000774
937.5269	-0.000007
938.2498	0.000542
938.9728	0.001787
939.6959	-0.000345
940.4190	0.001513
941.1422	0.001027
941.8655	0.002357
942.5889	0.001323
943.3123	0.000711
944.0357	-0.000408
944.7593	-0.000091
945.4829	-0.000007
946.2066	0.001913
946.9303	0.000267
947.6541	-0.000872
948.3780	0.000584
949.1019	0.000415
949.8259	-0.000260
950.5500	0.001175
951.2741	0.000879
951.9983	0.001301
952.7226	0.001449
953.4469	0.001702
954.1713	0.000795
954.8958	0.000478
955.6203	0.000732
956.3449	0.000141
957.0696	-0.000999
957.7943	0.000352
958.5191	0.000373
959.2439	0.001724
959.9688	0.000605
960.6938	0.001027
961.4189	0.000457
962.1440	-0.000324
962.8692	0.000014
963.5944	0.000964
964.3197	-0.001653
965.0451	0.000626
965.7705	-0.000640
966.4960	0.000394
967.2216	-0.000113
967.9472	0.000753
968.6729	0.001154
969.3987	-0.000155
970.1245	-0.000303
970.8504	-0.000218
971.5763	0.000141
972.3023	0.001513
973.0284	-0.000429
973.7545	0.001344
974.4807	0.000647
975.2070	-0.000387
975.9333	-0.000134
976.6597	-0.000429
977.3862	-0.000176
978.1127	0.000098
978.8393	0.000499
979.5659	0.000816
980.2926	-0.000682
981.0194	-0.001231
981.7462	-0.000450
982.4731	0.001301
983.2001	-0.000408
983.9271	0.000310
984.6542	0.001112
985.3814	0.000183
986.1086	-0.000408
986.8358	-0.000028
987.5632	-0.000535
988.2906	0.000753
989.0180	-0.000007
989.7456	0.000183
990.4732	0.000394
991.2008	-0.000978
991.9285	0.001956
992.6563	0.000120
993.3841	-0.000197
994.1120	-0.000366
994.8400	0.000711
995.5680	-0.000387
996.2961	-0.000703
997.0242	-0.000324
997.7524	-0.000598
998.4807	0.000352
999.2090	-0.001463
999.9374	-0.000091
1000.67	0.000098
1001.39	-0.000746
1002.12	-0.000260
1002.85	0.000542
1003.58	0.000457
1004.31	0.000964
1005.04	0.000035
1005.77	-0.000260
1006.5	-0.000007
1007.22	-0.000535
1007.95	0.000183
1008.68	0.000310
1009.41	0.000246
1010.14	-0.000345
1010.87	0.000457
1011.6	-0.000535
1012.33	-0.000978
1013.06	-0.000788
1013.79	0.001133
1014.52	-0.000725
1015.25	-0.000872
1015.98	0.000816
1016.71	0.000436
1017.44	-0.000514
1018.17	-0.000809
1018.9	0.000204
1019.63	0.000542
1020.36	-0.001611
1021.09	-0.001484
1021.82	-0.001759
1022.55	-0.000429
1023.03	0.000267