File: Auto_Polymerization/Spectra/MRG-061-F5_spectra_while_stopped_with_alu_foil/spectrum_2025-06-20_10-28-31.txt
# Wavelength (nm)	Intensity (a.u.)
197.7802	0.000084
198.3922	-0.000253
199.0044	0.001477
199.6168	-0.001034
200.2292	0.000464
200.8418	-0.000612
201.4546	0.000591
202.0674	-0.001182
202.6805	0.000127
203.2936	0.000717
203.9069	0.000127
204.5203	0.000528
205.1338	0.001013
205.7475	-0.000633
206.3614	0.000928
206.9753	0.000549
207.5894	-0.001794
208.2036	-0.000739
208.8180	0.001414
209.4325	0.000823
210.0471	0.000760
210.6618	-0.000401
211.2767	0.001224
211.8918	-0.000443
212.5069	0.000464
213.1222	0.000042
213.7376	-0.001329
214.3532	-0.000591
214.9689	-0.000380
215.5847	-0.001477
216.2007	0.000063
216.8168	-0.000717
217.4330	0.000317
218.0494	-0.000696
218.6659	-0.001224
219.2825	-0.000570
219.8992	0.002068
220.5161	0.000359
221.1332	-0.000422
221.7503	-0.001055
222.3676	0.000443
222.9850	-0.000211
223.6026	0.000928
224.2203	0.000211
224.8381	-0.000148
225.4561	0.000127
226.0742	0.001245
226.6924	-0.000570
227.3107	0.000506
227.9292	0.000232
228.5478	0.000928
229.1666	-0.000253
229.7855	-0.000148
230.4045	0.000971
231.0236	-0.000211
231.6429	0.000253
232.2623	-0.000570
232.8818	-0.001245
233.5015	0.001540
234.1213	-0.000781
234.7413	-0.000422
235.3613	0.000506
235.9815	0.001751
236.6018	0.000000
237.2223	0.000106
237.8429	0.000760
238.4636	0.000106
239.0845	-0.000190
239.7055	0.000570
240.3266	0.000464
240.9478	-0.000591
241.5692	0.000802
242.1907	0.000907
242.8124	0.000823
243.4341	0.001203
244.0560	-0.000317
244.6781	-0.000338
245.3002	0.000633
245.9225	-0.000295
246.5449	0.000021
247.1675	-0.000886
247.7902	0.000823
248.4130	0.000865
249.0359	0.001625
249.6590	0.000169
250.2822	-0.000042
250.9056	0.000021
251.5290	-0.001287
252.1526	-0.000422
252.7763	0.003081
253.4002	0.000528
254.0242	-0.000528
254.6483	-0.000063
255.2725	-0.000211
255.8969	0.000591
256.5214	-0.001118
257.1460	0.001224
257.7708	0.000675
258.3957	0.000844
259.0207	0.000084
259.6459	0.000000
260.2711	0.000042
260.8965	-0.000084
261.5221	0.000295
262.1477	-0.000506
262.7735	0.000232
263.3995	0.001182
264.0255	-0.001161
264.6517	0.000127
265.2780	-0.001435
265.9044	0.000380
266.5310	-0.000106
267.1577	-0.002406
267.7845	-0.000042
268.4114	0.000675
269.0385	-0.000485
269.6657	-0.000148
270.2931	-0.000084
270.9205	-0.000021
271.5481	0.000971
272.1758	0.000675
272.8037	0.000084
273.4316	-0.000359
274.0597	0.000127
274.6880	0.001329
275.3163	0.000633
275.9448	0.000549
276.5734	0.000696
277.2022	0.000084
277.8310	-0.000211
278.4600	0.000443
279.0891	-0.001477
279.7184	-0.000950
280.3477	-0.000549
280.9772	0.000317
281.6069	0.002131
282.2366	-0.000443
282.8665	0.000021
283.4965	0.000042
284.1266	-0.001097
284.7569	0.000675
285.3873	-0.000464
286.0178	0.000971
286.6484	0.000464
287.2792	-0.000401
287.9101	0.000654
288.5411	-0.000084
289.1723	0.001266
289.8035	0.001245
290.4349	-0.000274
291.0665	0.000084
291.6981	0.000190
292.3299	-0.000359
292.9618	-0.000992
293.5938	0.001414
294.2260	0.000274
294.8582	-0.000211
295.4906	-0.000549
296.1232	0.000084
296.7558	0.000865
297.3886	-0.000844
298.0215	-0.000380
298.6545	0.000211
299.2877	-0.000295
299.9210	0.000570
300.5544	0.000359
301.1879	0.000211
301.8215	-0.000190
302.4553	-0.000148
303.0892	-0.001815
303.7233	-0.000886
304.3574	-0.000612
304.9917	-0.000190
305.6261	0.000781
306.2606	-0.000106
306.8953	0.000823
307.5301	0.001118
308.1650	-0.000591
308.8000	-0.000380
309.4351	0.000359
310.0704	0.001329
310.7058	-0.000549
311.3413	0.001076
311.9770	0.000823
312.6127	0.000190
313.2486	-0.000042
313.8846	0.001139
314.5208	0.000823
315.1570	0.001667
315.7934	0.001372
316.4299	-0.000717
317.0666	-0.000021
317.7033	-0.001034
318.3402	-0.000612
318.9772	0.000739
319.6143	-0.000950
320.2516	0.000781
320.8890	0.000084
321.5265	0.001097
322.1641	0.000000
322.8018	0.001139
323.4397	0.000211
324.0777	0.001287
324.7158	0.000633
325.3540	0.000992
325.9924	0.000084
326.6308	0.000211
327.2694	0.001941
327.9082	0.000401
328.5470	-0.000549
329.1860	-0.000570
329.8251	-0.000148
330.4643	0.001203
331.1036	0.000865
331.7431	-0.000823
332.3826	-0.000971
333.0223	0.001245
333.6622	0.001646
334.3021	-0.000717
334.9422	-0.000950
335.5823	0.001329
336.2227	0.000760
336.8631	0.000612
337.5036	-0.000443
338.1443	0.000127
338.7851	0.000274
339.4260	-0.000063
340.0670	-0.000802
340.7082	0.000106
341.3495	0.000084
341.9909	0.000675
342.6324	-0.000844
343.2740	-0.000633
343.9158	0.000063
344.5577	-0.000232
345.1997	-0.000823
345.8418	0.000443
346.4840	-0.000169
347.1264	-0.000148
347.7689	0.000950
348.4115	0.000148
349.0542	-0.000169
349.6971	-0.000211
350.3400	0.000464
350.9831	0.000633
351.6263	0.000654
352.2696	0.000696
352.9131	0.000190
353.5566	0.001139
354.2003	-0.000063
354.8441	0.000907
355.4881	0.000506
356.1321	0.001139
356.7763	-0.000506
357.4206	0.000464
358.0650	0.000042
358.7095	0.000528
359.3541	-0.000042
359.9989	-0.000717
360.6438	-0.000190
361.2888	0.000506
361.9339	-0.000696
362.5791	-0.000464
363.2245	0.001224
363.8699	0.000169
364.5155	-0.000084
365.1612	0.000907
365.8071	-0.001561
366.4530	-0.000422
367.0991	0.000464
367.7453	0.001097
368.3916	0.001076
369.0380	-0.000570
369.6845	-0.000675
370.3312	0.001287
370.9780	0.000633
371.6249	0.000696
372.2719	-0.000338
372.9190	0.001604
373.5663	0.000380
374.2136	0.000127
374.8611	-0.000317
375.5087	0.000633
376.1564	0.000190
376.8043	0.000422
377.4522	0.000506
378.1003	0.000971
378.7485	0.000886
379.3968	-0.000844
380.0452	-0.000506
380.6938	0.000380
381.3424	0.000464
381.9912	0.000950
382.6401	0.000570
383.2891	0.000485
383.9382	-0.001182
384.5875	0.000549
385.2368	0.000802
385.8863	0.001646
386.5359	0.001477
387.1856	0.000148
387.8355	0.000380
388.4854	0.001857
389.1355	-0.000295
389.7856	-0.000591
390.4359	0.000886
391.0863	0.000928
391.7369	0.000506
392.3875	0.000274
393.0383	0.000570
393.6891	0.000127
394.3401	-0.000886
394.9912	0.001583
395.6425	0.001625
396.2938	0.002427
396.9453	0.001941
397.5968	0.002617
398.2485	0.001329
398.9003	0.002089
399.5522	0.003461
400.2043	0.002849
400.8564	0.003756
401.5087	0.003650
402.1610	0.004094
402.8135	0.004558
403.4661	0.003946
404.1189	0.005001
404.7717	0.006183
405.4246	0.005381
406.0777	0.005824
406.7309	0.005676
407.3842	0.005824
408.0376	0.005803
408.6911	0.008293
409.3448	0.005824
409.9985	0.006267
410.6524	0.006963
411.3064	0.007554
411.9605	0.006921
412.6147	0.008293
413.2690	0.006921
413.9234	0.009179
414.5780	0.007090
415.2326	0.009306
415.8874	0.009770
416.5423	0.010086
417.1973	0.008905
417.8524	0.009875
418.5077	0.011141
419.1630	0.011817
419.8185	0.012471
420.4741	0.012386
421.1298	0.014897
421.7856	0.015362
422.4415	0.014644
423.0975	0.015108
423.7536	0.013779
424.4099	0.014940
425.0663	0.013526
425.7228	0.012365
426.3793	0.012112
427.0361	0.012260
427.6929	0.015425
428.3498	0.015636
429.0068	0.014539
429.6640	0.017725
430.3213	0.016691
430.9787	0.017029
431.6362	0.015573
432.2938	0.015636
432.9515	0.013589
433.6093	0.016501
434.2673	0.017788
434.9253	0.016712
435.5835	0.015151
436.2418	0.016670
436.9001	0.017556
437.5586	0.016733
438.2173	0.017493
438.8760	0.016037
439.5348	0.015615
440.1938	0.017261
440.8528	0.016944
441.5120	0.020468
442.1713	0.019835
442.8307	0.019307
443.4902	0.019329
444.1498	0.021017
444.8095	0.019856
445.4694	0.019265
446.1293	0.019075
446.7894	0.021101
447.4496	0.018632
448.1098	0.019181
448.7702	0.018337
449.4307	0.018189
450.0914	0.017704
450.7521	0.017451
451.4129	0.016839
452.0739	0.016396
452.7349	0.016185
453.3961	0.014391
454.0574	0.013800
454.7188	0.015277
455.3803	0.013125
456.0419	0.015446
456.7036	0.013716
457.3654	0.012745
458.0274	0.016417
458.6894	0.013315
459.3516	0.013062
460.0138	0.013505
460.6762	0.013441
461.3387	0.013083
462.0013	0.013800
462.6640	0.010318
463.3268	0.011120
463.9897	0.012365
464.6528	0.011606
465.3159	0.012049
465.9792	0.013484
466.6425	0.010002
467.3060	0.010023
467.9696	0.008588
468.6333	0.009390
469.2970	0.007048
469.9610	0.009664
470.6250	0.006984
471.2891	0.005360
471.9533	0.005908
472.6177	0.007027
473.2821	0.006035
473.9467	0.007069
474.6113	0.008356
475.2761	0.007111
475.9410	0.006626
476.6060	0.007111
477.2711	0.004853
477.9363	0.005866
478.6016	0.005676
479.2670	0.005972
479.9325	0.005613
480.5982	0.005128
481.2639	0.003714
481.9298	0.005423
482.5957	0.003165
483.2618	0.005233
483.9280	0.004051
484.5943	0.004684
485.2606	0.005296
485.9271	0.015151
486.5937	0.010150
487.2605	0.007554
487.9273	0.002912
488.5942	0.002764
489.2612	0.004684
489.9284	0.003967
490.5956	0.004706
491.2630	0.003397
491.9304	0.003545
492.5980	0.003439
493.2657	0.004495
493.9334	0.003819
494.6013	0.002490
495.2693	0.002975
495.9374	0.001583
496.6056	0.002975
497.2739	0.003376
497.9423	0.000591
498.6109	0.002933
499.2795	0.002595
499.9482	0.002617
500.6171	0.002384
501.2860	0.002764
501.9551	0.002743
502.6242	0.002173
503.2935	0.002680
503.9628	0.002384
504.6323	0.002342
505.3019	0.002806
505.9716	0.002089
506.6414	0.001372
507.3113	0.002068
507.9813	0.001709
508.6514	0.003967
509.3216	0.002427
509.9919	0.001625
510.6623	0.001350
511.3329	0.002933
512.0035	0.002870
512.6742	0.002279
513.3451	0.002110
514.0160	0.002785
514.6871	0.002216
515.3582	0.002469
516.0295	0.001182
516.7008	0.002110
517.3723	0.003102
518.0439	0.001097
518.7155	0.002912
519.3873	0.003228
520.0592	0.001329
520.7312	0.001604
521.4033	0.002659
522.0755	0.002110
522.7478	0.003017
523.4202	0.002258
524.0927	0.003566
524.7653	0.001161
525.4380	0.002722
526.1108	0.003819
526.7837	0.002870
527.4568	0.003608
528.1299	0.004030
528.8031	0.003292
529.4765	0.004938
530.1499	0.003355
530.8234	0.003798
531.4971	0.005149
532.1708	0.004431
532.8447	0.006119
533.5186	0.004051
534.1927	0.005824
534.8668	0.005950
535.5411	0.007259
536.2155	0.005761
536.8899	0.005402
537.5645	0.007512
538.2392	0.006035
538.9139	0.008462
539.5888	0.009643
540.2638	0.008208
540.9389	0.009095
541.6140	0.008905
542.2893	0.009348
542.9647	0.009221
543.6402	0.011289
544.3158	0.010656
544.9915	0.012787
545.6673	0.012429
546.3432	0.010340
547.0192	0.011732
547.6953	0.012787
548.3715	0.014940
549.0478	0.013104
549.7242	0.013948
550.4007	0.014560
551.0773	0.014982
551.7540	0.014032
552.4308	0.016290
553.1077	0.017662
553.7847	0.017556
554.4618	0.015551
555.1390	0.019307
555.8163	0.018463
556.4937	0.019139
557.1712	0.019181
557.8488	0.018126
558.5266	0.017936
559.2044	0.019983
559.8823	0.021861
560.5603	0.023865
561.2384	0.025996
561.9166	0.027052
562.5949	0.026503
563.2733	0.028254
563.9519	0.028634
564.6305	0.030808
565.3092	0.029267
565.9880	0.031019
566.6669	0.033508
567.3459	0.040598
568.0250	0.042434
568.7043	0.051276
569.3836	0.058893
570.0630	0.079045
570.7425	0.084763
571.4221	0.097909
572.1018	0.107510
572.7816	0.094005
573.4615	0.106307
574.1415	0.123019
574.8216	0.135363
575.5018	0.133907
576.1821	0.121837
576.8626	0.140132
577.5431	0.153531
578.2237	0.190142
578.9044	0.154629
579.5851	0.154101
580.2660	0.162056
580.9470	0.156528
581.6281	0.254563
582.3093	0.240425
582.9906	0.184803
583.6720	0.149543
584.3535	0.152793
585.0351	0.174105
585.7167	0.185098
586.3985	0.157941
587.0804	0.166171
587.7624	0.177460
588.4445	0.159440
589.1266	0.138381
589.8089	0.128273
590.4913	0.117448
591.1737	0.106138
591.8563	0.102488
592.5389	0.123631
593.2217	0.160579
593.9046	0.152392
594.5875	0.133485
595.2705	0.156739
595.9537	0.135933
596.6369	0.114093
597.3203	0.118018
598.0037	0.114283
598.6872	0.121437
599.3709	0.150218
600.0546	0.143150
600.7384	0.147412
601.4223	0.146927
602.1064	0.134878
602.7905	0.136186
603.4747	0.151611
604.1590	0.141314
604.8434	0.122555
605.5279	0.130531
606.2125	0.135806
606.8972	0.123230
607.5819	0.128611
608.2668	0.119685
608.9518	0.114368
609.6369	0.103416
610.3220	0.122175
611.0073	0.110000
611.6927	0.110802
612.3781	0.102446
613.0637	0.104514
613.7493	0.102530
614.4351	0.100736
615.1209	0.099702
615.8068	0.106328
616.4929	0.090903
617.1790	0.087823
617.8652	0.086789
618.5515	0.079910
619.2379	0.072377
619.9244	0.073432
620.6110	0.079467
621.2977	0.058028
621.9845	0.064189
622.6714	0.070245
623.3584	0.073136
624.0454	0.067587
624.7326	0.075014
625.4199	0.067587
626.1072	0.063514
626.7947	0.055348
627.4822	0.056023
628.1698	0.050832
628.8576	0.046971
629.5454	0.050537
630.2333	0.048469
630.9213	0.044565
631.6094	0.042075
632.2976	0.043131
632.9859	0.036779
633.6743	0.035956
634.3628	0.035534
635.0514	0.032348
635.7400	0.033867
636.4288	0.037792
637.1177	0.036821
637.8066	0.034184
638.4957	0.036505
639.1848	0.033466
639.8740	0.030069
640.5633	0.028843
641.2528	0.028912
641.9423	0.024536
642.6319	0.026705
643.3216	0.024929
644.0113	0.024568
644.7012	0.021798
645.3912	0.022342
646.0812	0.020964
646.7714	0.021637
647.4616	0.018725
648.1520	0.024013
648.8424	0.028299
649.5329	0.027275
650.2236	0.023704
650.9143	0.022557
651.6051	0.023652
652.2960	0.026182
652.9870	0.027118
653.6780	0.026813
654.3692	0.027393
655.0605	0.049623
655.7518	0.791937
656.4433	1.000000
657.1348	0.706835
657.8264	0.429121
658.5181	0.324262
659.2099	0.237853
659.9018	0.060296
660.5938	0.023920
661.2859	0.017595
661.9781	0.018137
662.6704	0.019272
663.3627	0.016318
664.0552	0.016663
664.7477	0.019221
665.4403	0.020554
666.1330	0.018640
666.8259	0.016879
667.5188	0.018087
668.2117	0.018273
668.9048	0.016037
669.5980	0.017050
670.2913	0.018822
670.9846	0.017240
671.6781	0.025807
672.3716	0.027642
673.0652	0.025089
673.7589	0.023591
674.4527	0.023085
675.1466	0.022262
675.8406	0.020510
676.5347	0.019645
677.2288	0.018105
677.9231	0.023760
678.6174	0.022789
679.3119	0.026060
680.0064	0.030196
680.7010	0.027474
681.3957	0.029373
682.0905	0.025258
682.7854	0.026967
683.4803	0.024076
684.1754	0.028318
684.8705	0.032411
685.5658	0.038172
686.2611	0.035218
686.9565	0.035450
687.6520	0.037117
688.3476	0.034310
689.0433	0.029183
689.7390	0.028634
690.4349	0.026482
691.1308	0.030470
691.8269	0.029014
692.5230	0.031061
693.2192	0.031525
693.9155	0.029098
694.6119	0.026587
695.3083	0.028128
696.0049	0.023612
696.7016	0.030048
697.3983	0.032010
698.0951	0.033129
698.7920	0.030111
699.4890	0.031082
700.1861	0.025638
700.8833	0.024794
701.5806	0.022029
702.2779	0.023950
702.9753	0.023802
703.6729	0.022726
704.3705	0.023021
705.0682	0.019772
705.7660	0.019624
706.4638	0.023929
707.1618	0.030871
707.8599	0.030428
708.5580	0.030955
709.2562	0.028233
709.9545	0.026503
710.6529	0.029352
711.3514	0.026229
712.0500	0.024013
712.7486	0.026039
713.4474	0.026883
714.1462	0.027263
714.8451	0.028128
715.5441	0.028107
716.2432	0.024688
716.9424	0.024730
717.6416	0.022029
718.3410	0.024625
719.0404	0.024372
719.7399	0.022768
720.4395	0.022852
721.1392	0.024393
721.8390	0.023781
722.5388	0.022979
723.2388	0.021291
723.9388	0.022641
724.6389	0.021439
725.3391	0.027663
726.0394	0.028655
726.7398	0.027474
727.4403	0.025511
728.1408	0.026608
728.8414	0.028761
729.5421	0.029035
730.2429	0.029330
730.9438	0.034099
731.6448	0.034711
732.3458	0.033403
733.0470	0.035808
733.7482	0.037855
734.4495	0.044059
735.1509	0.039375
735.8524	0.039079
736.5539	0.037201
737.2556	0.043236
737.9573	0.033551
738.6591	0.031652
739.3610	0.038425
740.0630	0.036019
740.7651	0.034015
741.4672	0.029183
742.1695	0.027832
742.8718	0.027094
743.5742	0.025532
744.2767	0.025807
744.9792	0.025005
745.6819	0.020595
746.3846	0.023063
747.0874	0.023085
747.7903	0.025701
748.4933	0.022979
749.1964	0.025954
749.8995	0.028740
750.6028	0.033994
751.3061	0.031926
752.0095	0.032875
752.7130	0.031208
753.4166	0.031082
754.1202	0.035661
754.8239	0.032707
755.5278	0.035534
756.2317	0.035619
756.9356	0.039839
757.6397	0.047520
758.3438	0.047815
759.0481	0.042709
759.7524	0.052162
760.4568	0.053090
761.1613	0.053280
761.8658	0.044481
762.5705	0.038193
763.2752	0.040662
763.9800	0.041063
764.6849	0.047541
765.3898	0.047456
766.0949	0.041801
766.8000	0.031504
767.5052	0.031398
768.2105	0.035576
768.9159	0.039923
769.6214	0.036695
770.3269	0.034732
771.0325	0.041274
771.7382	0.036547
772.4440	0.032601
773.1499	0.032918
773.8558	0.031187
774.5618	0.027220
775.2679	0.023992
775.9741	0.021818
776.6804	0.020806
777.3868	0.019160
778.0932	0.021418
778.7997	0.023021
779.5063	0.025216
780.2130	0.024351
780.9197	0.024941
781.6265	0.028254
782.3335	0.029141
783.0405	0.027748
783.7475	0.029963
784.4547	0.026608
785.1619	0.023612
785.8692	0.023380
786.5766	0.024730
787.2841	0.024097
787.9917	0.024730
788.6993	0.025047
789.4070	0.025237
790.1148	0.021122
790.8227	0.022008
791.5306	0.019793
792.2387	0.019814
792.9468	0.017387
793.6550	0.018970
794.3632	0.026735
795.0716	0.027199
795.7800	0.023760
796.4885	0.020004
797.1971	0.018105
797.9058	0.019223
798.6145	0.018463
799.3233	0.019033
800.0322	0.017873
800.7412	0.017767
801.4503	0.016543
802.1594	0.013631
802.8686	0.011753
803.5779	0.015404
804.2873	0.012576
804.9968	0.014581
805.7063	0.014771
806.4159	0.020974
807.1256	0.018295
807.8354	0.018463
808.5452	0.018126
809.2551	0.019729
809.9651	0.014560
810.6752	0.015699
811.3853	0.015319
812.0956	0.014454
812.8059	0.009390
813.5163	0.013251
814.2267	0.016185
814.9373	0.014222
815.6479	0.012534
816.3586	0.010825
817.0694	0.011373
817.7802	0.010825
818.4912	0.009791
819.2022	0.010635
819.9133	0.009960
820.6244	0.013104
821.3357	0.013294
822.0470	0.011352
822.7584	0.009833
823.4698	0.010762
824.1814	0.009495
824.8930	0.008609
825.6047	0.009812
826.3165	0.010698
827.0283	0.011120
827.7402	0.011521
828.4522	0.009179
829.1643	0.009791
829.8765	0.009116
830.5887	0.008546
831.3010	0.007006
832.0134	0.005761
832.7259	0.006541
833.4384	0.006499
834.1510	0.009158
834.8637	0.009284
835.5765	0.007280
836.2893	0.007406
837.0022	0.007744
837.7152	0.006288
838.4283	0.005085
839.1414	0.005550
839.8546	0.006499
840.5679	0.005739
841.2813	0.007027
841.9947	0.003608
842.7082	0.004748
843.4218	0.003946
844.1355	0.004241
844.8492	0.005128
845.5631	0.005339
846.2770	0.004832
846.9909	0.003608
847.7050	0.002089
848.4191	0.004030
849.1333	0.003925
849.8475	0.003482
850.5619	0.003313
851.2763	0.003482
851.9908	0.004199
852.7053	0.008314
853.4200	0.008715
854.1347	0.010361
854.8495	0.011627
855.5643	0.010129
856.2792	0.009643
856.9942	0.009369
857.7093	0.009432
858.4245	0.008145
859.1397	0.007006
859.8550	0.006795
860.5704	0.005001
861.2858	0.004305
862.0013	0.003988
862.7169	0.003967
863.4326	0.005782
864.1483	0.006267
864.8642	0.003461
865.5800	0.004748
866.2960	0.004410
867.0120	0.004347
867.7281	0.004030
868.4443	0.005845
869.1606	0.005381
869.8769	0.004642
870.5933	0.002300
871.3097	0.004558
872.0263	0.004284
872.7429	0.005528
873.4596	0.004262
874.1763	0.005212
874.8932	0.005718
875.6101	0.005149
876.3270	0.005233
877.0441	0.003693
877.7612	0.005486
878.4784	0.005149
879.1957	0.006436
879.9130	0.006499
880.6304	0.008124
881.3479	0.005887
882.0654	0.004853
882.7831	0.005465
883.5007	0.005212
884.2185	0.005486
884.9363	0.004347
885.6542	0.005022
886.3722	0.005296
887.0903	0.005296
887.8084	0.005275
888.5266	0.003439
889.2448	0.004790
889.9632	0.003503
890.6816	0.002638
891.4001	0.003102
892.1186	0.004009
892.8372	0.003545
893.5559	0.003967
894.2747	0.002785
894.9935	0.003313
895.7124	0.002469
896.4314	0.004051
897.1504	0.003418
897.8695	0.004600
898.5887	0.003545
899.3079	0.003186
900.0272	0.003376
900.7466	0.003165
901.4661	0.002574
902.1856	0.004220
902.9052	0.002680
903.6249	0.003250
904.3446	0.002849
905.0644	0.005043
905.7843	0.003207
906.5043	0.003418
907.2243	0.003988
907.9444	0.003566
908.6645	0.002595
909.3847	0.002448
910.1050	0.002469
910.8254	0.002173
911.5458	0.004115
912.2663	0.002617
912.9869	0.003397
913.7075	0.001498
914.4283	0.002005
915.1490	0.001920
915.8699	0.001604
916.5908	0.002912
917.3118	0.003250
918.0328	0.002806
918.7539	0.003060
919.4751	0.003904
920.1964	0.002173
920.9177	0.003017
921.6391	0.003461
922.3606	0.002659
923.0821	0.002173
923.8037	0.002469
924.5254	0.001667
925.2471	0.002195
925.9689	0.001983
926.6908	0.002870
927.4127	0.001730
928.1347	0.000802
928.8568	0.001034
929.5789	0.001456
930.3011	-0.000042
931.0234	0.001540
931.7457	0.002068
932.4681	0.001498
933.1906	0.000084
933.9131	0.001393
934.6358	0.001941
935.3584	0.002427
936.0812	0.002026
936.8040	0.002806
937.5269	0.001920
938.2498	0.000654
938.9728	0.000992
939.6959	0.000654
940.4190	-0.000211
941.1422	-0.000042
941.8655	0.001161
942.5889	0.000443
943.3123	0.000253
944.0357	0.000992
944.7593	0.001561
945.4829	-0.000422
946.2066	0.001751
946.9303	0.000084
947.6541	0.001013
948.3780	0.000696
949.1019	0.000865
949.8259	0.000781
950.5500	0.001224
951.2741	0.001393
951.9983	0.000232
952.7226	0.000739
953.4469	0.002785
954.1713	-0.000443
954.8958	0.001203
955.6203	0.000760
956.3449	0.000844
957.0696	0.001055
957.7943	0.001836
958.5191	0.001435
959.2439	0.001983
959.9688	0.001139
960.6938	0.001646
961.4189	0.000907
962.1440	-0.000422
962.8692	-0.000106
963.5944	0.001097
964.3197	0.001815
965.0451	-0.000401
965.7705	0.000717
966.4960	0.000317
967.2216	0.001456
967.9472	0.002068
968.6729	0.000781
969.3987	0.001920
970.1245	0.000844
970.8504	0.000042
971.5763	0.000295
972.3023	0.000359
973.0284	-0.000338
973.7545	0.000232
974.4807	0.001899
975.2070	0.000317
975.9333	0.001836
976.6597	0.001435
977.3862	-0.000127
978.1127	0.000950
978.8393	0.001118
979.5659	0.000106
980.2926	-0.000802
981.0194	-0.000485
981.7462	0.000612
982.4731	0.000886
983.2001	0.000865
983.9271	0.000042
984.6542	-0.000591
985.3814	-0.000549
986.1086	0.000169
986.8358	-0.000654
987.5632	-0.001709
988.2906	0.000211
989.0180	0.000042
989.7456	-0.000865
990.4732	-0.000992
991.2008	0.000380
991.9285	-0.000950
992.6563	0.000401
993.3841	0.000274
994.1120	-0.000021
994.8400	-0.000211
995.5680	0.000401
996.2961	0.000675
997.0242	0.000274
997.7524	0.000084
998.4807	0.000802
999.2090	-0.000886
999.9374	-0.000612
1000.67	0.000127
1001.39	0.000000
1002.12	-0.000106
1002.85	0.000464
1003.58	0.001055
1004.31	0.000021
1005.04	0.000528
1005.77	-0.000633
1006.5	0.000106
1007.22	-0.000802
1007.95	0.000084
1008.68	-0.000844
1009.41	-0.000106
1010.14	-0.000295
1010.87	0.001646
1011.6	-0.000338
1012.33	0.000359
1013.06	0.001076
1013.79	0.000084
1014.52	-0.000612
1015.25	-0.000042
1015.98	0.000232
1016.71	-0.000781
1017.44	-0.000253
1018.17	0.000823
1018.9	-0.000211
1019.63	0.000865
1020.36	-0.000338
1021.09	-0.000232
1021.82	-0.000211
1022.55	-0.001013
1023.03	-0.000739