File: Auto_Polymerization/Spectra/MRG-061-F5_spectra_while_stopped_with_alu_foil/spectrum_2025-06-20_09-22-00.txt
# Wavelength (nm)	Intensity (a.u.)
197.7802	-0.000334
198.3922	0.000510
199.0044	0.000552
199.6168	0.000868
200.2292	0.001648
200.8418	-0.000081
201.4546	0.001943
202.0674	-0.000418
202.6805	0.000404
203.2936	0.000193
203.9069	0.000425
204.5203	0.001711
205.1338	0.000362
205.7475	0.001627
206.3614	0.000573
206.9753	0.001353
207.5894	0.000763
208.2036	-0.000039
208.8180	-0.000081
209.4325	0.000109
210.0471	0.001733
210.6618	0.000995
211.2767	0.002724
211.8918	0.000973
212.5069	0.002492
213.1222	0.000636
213.7376	0.001901
214.3532	-0.000018
214.9689	0.001648
215.5847	-0.000165
216.2007	0.001311
216.8168	0.000868
217.4330	0.000446
218.0494	-0.000418
218.6659	0.001711
219.2825	0.001079
219.8992	0.000636
220.5161	-0.000545
221.1332	0.000742
221.7503	0.000193
222.3676	0.001627
222.9850	0.001184
223.6026	0.001437
224.2203	0.000488
224.8381	0.000446
225.4561	0.001416
226.0742	0.000826
226.6924	0.001585
227.3107	0.000130
227.9292	0.000826
228.5478	0.000130
229.1666	-0.000798
229.7855	0.001627
230.4045	0.001479
231.0236	0.000784
231.6429	0.000025
232.2623	0.000826
232.8818	-0.000798
233.5015	0.002471
234.1213	-0.000186
234.7413	-0.000018
235.3613	-0.000144
235.9815	-0.000545
236.6018	0.000109
237.2223	0.001564
237.8429	-0.000060
238.4636	0.000910
239.0845	0.001353
239.7055	0.001142
240.3266	0.001374
240.9478	0.002007
241.5692	-0.000250
242.1907	0.000615
242.8124	0.001901
243.4341	0.001269
244.0560	0.002091
244.6781	0.002070
245.3002	-0.000292
245.9225	0.002766
246.5449	-0.000861
247.1675	0.001543
247.7902	0.000004
248.4130	0.002196
249.0359	0.000446
249.6590	0.000826
250.2822	0.001248
250.9056	0.001100
251.5290	0.000088
252.1526	0.001226
252.7763	-0.000039
253.4002	0.000404
254.0242	0.001226
254.6483	0.002702
255.2725	0.001880
255.8969	0.000151
256.5214	-0.001114
257.1460	0.002154
257.7708	0.000383
258.3957	0.000172
259.0207	0.000699
259.6459	0.001332
260.2711	0.001311
260.8965	0.000889
261.5221	0.000594
262.1477	0.001058
262.7735	0.000657
263.3995	0.000151
264.0255	0.001733
264.6517	0.000341
265.2780	0.000784
265.9044	0.000699
266.5310	0.000109
267.1577	0.000826
267.7845	0.001501
268.4114	0.001248
269.0385	0.000952
269.6657	0.001775
270.2931	0.000025
270.9205	0.000973
271.5481	0.000004
272.1758	0.000425
272.8037	0.001269
273.4316	0.001332
274.0597	0.000362
274.6880	0.001163
275.3163	0.001880
275.9448	0.001986
276.5734	-0.000629
277.2022	0.000995
277.8310	0.000362
278.4600	0.001543
279.0891	0.001248
279.7184	0.001226
280.3477	0.000889
280.9772	-0.000018
281.6069	-0.000397
282.2366	0.000109
282.8665	0.000784
283.4965	-0.000228
284.1266	-0.000481
284.7569	-0.000060
285.3873	0.001585
286.0178	0.000320
286.6484	-0.000292
287.2792	0.001184
287.9101	0.000742
288.5411	0.001501
289.1723	-0.000123
289.8035	0.000193
290.4349	0.000805
291.0665	0.000763
291.6981	0.000952
292.3299	0.000910
292.9618	0.000257
293.5938	0.002639
294.2260	0.000910
294.8582	0.001416
295.4906	-0.000060
296.1232	0.000004
296.7558	0.001880
297.3886	0.001226
298.0215	0.000067
298.6545	0.000742
299.2877	0.001079
299.9210	0.001479
300.5544	0.001775
301.1879	0.000847
301.8215	0.000025
302.4553	0.002871
303.0892	0.000784
303.7233	0.002344
304.3574	0.000931
304.9917	0.001016
305.6261	0.000826
306.2606	0.001796
306.8953	-0.000186
307.5301	0.000109
308.1650	0.000573
308.8000	0.001269
309.4351	0.000531
310.0704	0.001205
310.7058	0.000552
311.3413	0.001184
311.9770	0.000657
312.6127	0.000362
313.2486	0.001079
313.8846	0.000931
314.5208	-0.000587
315.1570	0.001796
315.7934	-0.000144
316.4299	0.001922
317.0666	0.000763
317.7033	0.000025
318.3402	0.000615
318.9772	0.000531
319.6143	-0.000376
320.2516	0.001332
320.8890	0.001564
321.5265	0.000784
322.1641	0.000299
322.8018	0.001585
323.4397	0.000910
324.0777	0.001205
324.7158	0.000868
325.3540	0.000299
325.9924	0.000235
326.6308	0.001100
327.2694	0.001226
327.9082	0.000868
328.5470	0.000636
329.1860	0.002175
329.8251	0.000931
330.4643	0.000889
331.1036	0.000109
331.7431	0.001711
332.3826	0.001269
333.0223	0.001711
333.6622	0.000720
334.3021	0.001479
334.9422	0.000172
335.5823	0.001585
336.2227	0.000257
336.8631	0.000826
337.5036	0.000151
338.1443	0.000341
338.7851	0.000467
339.4260	0.001163
340.0670	0.000678
340.7082	0.000615
341.3495	0.000025
341.9909	0.000130
342.6324	0.000889
343.2740	0.000004
343.9158	0.000341
344.5577	0.000446
345.1997	-0.000840
345.8418	0.002913
346.4840	0.000889
347.1264	0.000847
347.7689	0.000594
348.4115	-0.000039
349.0542	-0.000018
349.6971	0.000805
350.3400	0.000784
350.9831	0.001458
351.6263	-0.000271
352.2696	0.000763
352.9131	0.000257
353.5566	0.000636
354.2003	-0.001641
354.8441	0.000510
355.4881	0.001395
356.1321	0.001058
356.7763	0.001163
357.4206	0.001269
358.0650	0.000404
358.7095	0.001205
359.3541	0.002196
359.9989	0.001437
360.6438	0.000636
361.2888	-0.000228
361.9339	0.001374
362.5791	0.001353
363.2245	-0.001051
363.8699	0.001016
364.5155	-0.000165
365.1612	0.000995
365.8071	0.000235
366.4530	0.001627
367.0991	0.000784
367.7453	0.001838
368.3916	-0.000144
369.0380	0.000193
369.6845	0.000847
370.3312	0.001964
370.9780	0.000531
371.6249	0.001606
372.2719	-0.000207
372.9190	0.001374
373.5663	0.000404
374.2136	0.001416
374.8611	0.000552
375.5087	-0.000587
376.1564	0.001416
376.8043	-0.000987
377.4522	0.001163
378.1003	0.001733
378.7485	0.000889
379.3968	-0.000460
380.0452	-0.000629
380.6938	0.001353
381.3424	0.001311
381.9912	0.001416
382.6401	0.000383
383.2891	0.000425
383.9382	0.001100
384.5875	0.002302
385.2368	0.000594
385.8863	0.001733
386.5359	0.001458
387.1856	0.001142
387.8355	0.001859
388.4854	0.001690
389.1355	0.001880
389.7856	0.001733
390.4359	0.002449
391.0863	0.003208
391.7369	0.004052
392.3875	0.005085
393.0383	0.004263
393.6891	0.006182
394.3401	0.004516
394.9912	0.006456
395.6425	0.008058
396.2938	0.008100
396.9453	0.007531
397.5968	0.008501
398.2485	0.011221
398.9003	0.011390
399.5522	0.013119
400.2043	0.013013
400.8564	0.012634
401.5087	0.012296
402.1610	0.013372
402.8135	0.014173
403.4661	0.014827
404.1189	0.015080
404.7717	0.016071
405.4246	0.018685
406.0777	0.016619
406.7309	0.017568
407.3842	0.017736
408.0376	0.016176
408.6911	0.017399
409.3448	0.018770
409.9985	0.016998
410.6524	0.018285
411.3064	0.020815
411.9605	0.020035
412.6147	0.019044
413.2690	0.021131
413.9234	0.019634
414.5780	0.018474
415.2326	0.021321
415.8874	0.021237
416.5423	0.021426
417.1973	0.019908
417.8524	0.021890
418.5077	0.020435
419.1630	0.021806
419.8185	0.023113
420.4741	0.023725
421.1298	0.025433
421.7856	0.025939
422.4415	0.025433
423.0975	0.026107
423.7536	0.021279
424.4099	0.024589
425.0663	0.023809
425.7228	0.022586
426.3793	0.023050
427.0361	0.023134
427.6929	0.024231
428.3498	0.021975
429.0068	0.023071
429.6640	0.027710
430.3213	0.027351
430.9787	0.027162
431.6362	0.024146
432.2938	0.021511
432.9515	0.021279
433.6093	0.026339
434.2673	0.025137
434.9253	0.022712
435.5835	0.023134
436.2418	0.023493
436.9001	0.024083
437.5586	0.023429
438.2173	0.023429
438.8760	0.024631
439.5348	0.023556
440.1938	0.024673
440.8528	0.023092
441.5120	0.026930
442.1713	0.026571
442.8307	0.025686
443.4902	0.025664
444.1498	0.024336
444.8095	0.025749
445.4694	0.024990
446.1293	0.024652
446.7894	0.026592
447.4496	0.023303
448.1098	0.021384
448.7702	0.023029
449.4307	0.023767
450.0914	0.022944
450.7521	0.023071
451.4129	0.019550
452.0739	0.019655
452.7349	0.018770
453.3961	0.018453
454.0574	0.018116
454.7188	0.017462
455.3803	0.018959
456.0419	0.017800
456.7036	0.015965
457.3654	0.016345
458.0274	0.017104
458.6894	0.017399
459.3516	0.016176
460.0138	0.018137
460.6762	0.016534
461.3387	0.015628
462.0013	0.014468
462.6640	0.012402
463.3268	0.014004
463.9897	0.012212
464.6528	0.015501
465.3159	0.014953
465.9792	0.014869
466.6425	0.011137
467.3060	0.012317
467.9696	0.011516
468.6333	0.009829
469.2970	0.010841
469.9610	0.008902
470.6250	0.007679
471.2891	0.008965
471.9533	0.008121
472.6177	0.009387
473.2821	0.008986
473.9467	0.010378
474.6113	0.008417
475.2761	0.008965
475.9410	0.006392
476.6060	0.007109
477.2711	0.007215
477.9363	0.008290
478.6016	0.007426
479.2670	0.007130
479.9325	0.007573
480.5982	0.007130
481.2639	0.006477
481.9298	0.006055
482.5957	0.006877
483.2618	0.006667
483.9280	0.004663
484.5943	0.006097
485.2606	0.004769
485.9271	0.016007
486.5937	0.012360
487.2605	0.008564
487.9273	0.005380
488.5942	0.006920
489.2612	0.004600
489.9284	0.004368
490.5956	0.003651
491.2630	0.005085
491.9304	0.004959
492.5980	0.005212
493.2657	0.003335
493.9334	0.004347
494.6013	0.004010
495.2693	0.003883
495.9374	0.003820
496.6056	0.004200
497.2739	0.003040
497.9423	0.003166
498.6109	0.003356
499.2795	0.003778
499.9482	0.003567
500.6171	0.003651
501.2860	0.003440
501.9551	0.003651
502.6242	0.003230
503.2935	0.002154
503.9628	0.004263
504.6323	0.003462
505.3019	0.003019
505.9716	0.004263
506.6414	0.002049
507.3113	0.004157
507.9813	0.004200
508.6514	0.004326
509.3216	0.002639
509.9919	0.003483
510.6623	0.003419
511.3329	0.003736
512.0035	0.003314
512.6742	0.003757
513.3451	0.002070
514.0160	0.004326
514.6871	0.003103
515.3582	0.003462
516.0295	0.002323
516.7008	0.002913
517.3723	0.002913
518.0439	0.002386
518.7155	0.002534
519.3873	0.002007
520.0592	0.004200
520.7312	0.002829
521.4033	0.002597
522.0755	0.004242
522.7478	0.004010
523.4202	0.002639
524.0927	0.005950
524.7653	0.004495
525.4380	0.005528
526.1108	0.003672
526.7837	0.004832
527.4568	0.001922
528.1299	0.004516
528.8031	0.004853
529.4765	0.005317
530.1499	0.005317
530.8234	0.005697
531.4971	0.004094
532.1708	0.005486
532.8447	0.003736
533.5186	0.006118
534.1927	0.006456
534.8668	0.006920
535.5411	0.007447
536.2155	0.007700
536.8899	0.006772
537.5645	0.007510
538.2392	0.007109
538.9139	0.008838
539.5888	0.007911
540.2638	0.009787
540.9389	0.010146
541.6140	0.009597
542.2893	0.010462
542.9647	0.010820
543.6402	0.011221
544.3158	0.012465
544.9915	0.013625
545.6673	0.013941
546.3432	0.014658
547.0192	0.013098
547.6953	0.015227
548.3715	0.017441
549.0478	0.015733
549.7242	0.015944
550.4007	0.015944
551.0773	0.016303
551.7540	0.014067
552.4308	0.020794
553.1077	0.019233
553.7847	0.021426
554.4618	0.018959
555.1390	0.018896
555.8163	0.021447
556.4937	0.021279
557.1712	0.019697
557.8488	0.022481
558.5266	0.021405
559.2044	0.022312
559.8823	0.021300
560.5603	0.026508
561.2384	0.029122
561.9166	0.029776
562.5949	0.030556
563.2733	0.030409
563.9519	0.033677
564.6305	0.033635
565.3092	0.033529
565.9880	0.034963
566.6669	0.037599
567.3459	0.042849
568.0250	0.046455
568.7043	0.055648
569.3836	0.061974
570.0630	0.087909
570.7425	0.089321
571.4221	0.108151
572.1018	0.117175
572.7816	0.104081
573.4615	0.118293
574.1415	0.133580
574.8216	0.145936
575.5018	0.150827
576.1821	0.132842
576.8626	0.155087
577.5431	0.164828
578.2237	0.208201
578.9044	0.172039
579.5851	0.168624
580.2660	0.175982
580.9470	0.174380
581.6281	0.272069
582.3093	0.254062
582.9906	0.203309
583.6720	0.161497
584.3535	0.160442
585.0351	0.193757
585.7167	0.200779
586.3985	0.173051
587.0804	0.178723
587.7624	0.193863
588.4445	0.172630
589.1266	0.148107
589.8089	0.134528
590.4913	0.124935
591.1737	0.110554
591.8563	0.111103
592.5389	0.128983
593.2217	0.168012
593.9046	0.163099
594.5875	0.147918
595.2705	0.167232
595.9537	0.142499
596.6369	0.123543
597.3203	0.123037
598.0037	0.120359
598.6872	0.131091
599.3709	0.151502
600.0546	0.156036
600.7384	0.150638
601.4223	0.152240
602.1064	0.141086
602.7905	0.142203
603.4747	0.157575
604.1590	0.145514
604.8434	0.133242
605.5279	0.134634
606.2125	0.148866
606.8972	0.131471
607.5819	0.135245
608.2668	0.127739
608.9518	0.118272
609.6369	0.111967
610.3220	0.127149
611.0073	0.118461
611.6927	0.117829
612.3781	0.110449
613.0637	0.112157
613.7493	0.106928
614.4351	0.112009
615.1209	0.106717
615.8068	0.110301
616.4929	0.095457
617.1790	0.091303
617.8652	0.094719
618.5515	0.088921
619.2379	0.075553
619.9244	0.078188
620.6110	0.082300
621.2977	0.064778
621.9845	0.065874
622.6714	0.071525
623.3584	0.076881
624.0454	0.073086
624.7326	0.078104
625.4199	0.069649
626.1072	0.062817
626.7947	0.061763
627.4822	0.060582
628.1698	0.052822
628.8576	0.049871
629.5454	0.052928
630.2333	0.051895
630.9213	0.048036
631.6094	0.044177
632.2976	0.044304
632.9859	0.039560
633.6743	0.036186
634.3628	0.034900
635.0514	0.033846
635.7400	0.033150
636.4288	0.039960
637.1177	0.038906
637.8066	0.035722
638.4957	0.035575
639.1848	0.034225
639.8740	0.032430
640.5633	0.029314
641.2528	0.029887
641.9423	0.027954
642.6319	0.026163
643.3216	0.025259
644.0113	0.027041
644.7012	0.021763
645.3912	0.023627
646.0812	0.022688
646.7714	0.022401
647.4616	0.021508
648.1520	0.026104
648.8424	0.026911
649.5329	0.029354
650.2236	0.024237
650.9143	0.025048
651.6051	0.025034
652.2960	0.027201
652.9870	0.025335
653.6780	0.027782
654.3692	0.029195
655.0605	0.049164
655.7518	0.800401
656.4433	1.000000
657.1348	0.730077
657.8264	0.449316
658.5181	0.339397
659.2099	0.245745
659.9018	0.063403
660.5938	0.023168
661.2859	0.021832
661.9781	0.019861
662.6704	0.017585
663.3627	0.019322
664.0552	0.018534
664.7477	0.021915
665.4403	0.022063
666.1330	0.021839
666.8259	0.018048
667.5188	0.018077
668.2117	0.016736
668.9048	0.017673
669.5980	0.018095
670.2913	0.018074
670.9846	0.018369
671.6781	0.023282
672.3716	0.030071
673.0652	0.028195
673.7589	0.027035
674.4527	0.024969
675.1466	0.024041
675.8406	0.022797
676.5347	0.020815
677.2288	0.019992
677.9231	0.024526
678.6174	0.026698
679.3119	0.026171
680.0064	0.029734
680.7010	0.030999
681.3957	0.030345
682.0905	0.029734
682.7854	0.026339
683.4803	0.024336
684.1754	0.031842
684.8705	0.033065
685.5658	0.037999
686.2611	0.038442
686.9565	0.034014
687.6520	0.038379
688.3476	0.035111
689.0433	0.032876
689.7390	0.030177
690.4349	0.028553
691.1308	0.032517
691.8269	0.031442
692.5230	0.033614
693.2192	0.033614
693.9155	0.033318
694.6119	0.027646
695.3083	0.029860
696.0049	0.026634
696.7016	0.031168
697.3983	0.034752
698.0951	0.032580
698.7920	0.032433
699.4890	0.029839
700.1861	0.025454
700.8833	0.027140
701.5806	0.023619
702.2779	0.025643
702.9753	0.024463
703.6729	0.022818
704.3705	0.023661
705.0682	0.020119
705.7660	0.019360
706.4638	0.027077
707.1618	0.032433
707.8599	0.031463
708.5580	0.031421
709.2562	0.031104
709.9545	0.030894
710.6529	0.028975
711.3514	0.028153
712.0500	0.023788
712.7486	0.024948
713.4474	0.027541
714.1462	0.028701
714.8451	0.028933
715.5441	0.028153
716.2432	0.024884
716.9424	0.025179
717.6416	0.022038
718.3410	0.026487
719.0404	0.023957
719.7399	0.024420
720.4395	0.023134
721.1392	0.024821
721.8390	0.026930
722.5388	0.025707
723.2388	0.021721
723.9388	0.023071
724.6389	0.022712
725.3391	0.027942
726.0394	0.029312
726.7398	0.027752
727.4403	0.027140
728.1408	0.031568
728.8414	0.028216
729.5421	0.031315
730.2429	0.030219
730.9438	0.036608
731.6448	0.036038
732.3458	0.035069
733.0470	0.036608
733.7482	0.038252
734.4495	0.043882
735.1509	0.039581
735.8524	0.039876
736.5539	0.039180
737.2556	0.041542
737.9573	0.038147
738.6591	0.033888
739.3610	0.039750
740.0630	0.039665
740.7651	0.033445
741.4672	0.029502
742.1695	0.029671
742.8718	0.031948
743.5742	0.025833
744.2767	0.024336
744.9792	0.024442
745.6819	0.024273
746.3846	0.025137
747.0874	0.025496
747.7903	0.027162
748.4933	0.022902
749.1964	0.027225
749.8995	0.031695
750.6028	0.035364
751.3061	0.033340
752.0095	0.033782
752.7130	0.032559
753.4166	0.030303
754.1202	0.033972
754.8239	0.034120
755.5278	0.037261
756.2317	0.039349
756.9356	0.042976
757.6397	0.049596
758.3438	0.047783
759.0481	0.045843
759.7524	0.050166
760.4568	0.054024
761.1613	0.052548
761.8658	0.044810
762.5705	0.040994
763.2752	0.042828
763.9800	0.041689
764.6849	0.051220
765.3898	0.048584
766.0949	0.042111
766.8000	0.035743
767.5052	0.032665
768.2105	0.035659
768.9159	0.040129
769.6214	0.038653
770.3269	0.038147
771.0325	0.040509
771.7382	0.038252
772.4440	0.033276
773.1499	0.033382
773.8558	0.032138
774.5618	0.027857
775.2679	0.025327
775.9741	0.023408
776.6804	0.021975
777.3868	0.021363
778.0932	0.019655
778.7997	0.022270
779.5063	0.027604
780.2130	0.025496
780.9197	0.026698
781.6265	0.030936
782.3335	0.031821
783.0405	0.030029
783.7475	0.028659
784.4547	0.026634
785.1619	0.027372
785.8692	0.024463
786.5766	0.024442
787.2841	0.023366
787.9917	0.024610
788.6993	0.027267
789.4070	0.023746
790.1148	0.024020
790.8227	0.021215
791.5306	0.022228
792.2387	0.019423
792.9468	0.019128
793.6550	0.020815
794.3632	0.026782
795.0716	0.028511
795.7800	0.025348
796.4885	0.021363
797.1971	0.018959
797.9058	0.020435
798.6145	0.020309
799.3233	0.020288
800.0322	0.017905
800.7412	0.018411
801.4503	0.016197
802.1594	0.014384
802.8686	0.014363
803.5779	0.015037
804.2873	0.013351
804.9968	0.013561
805.7063	0.016155
806.4159	0.021975
807.1256	0.019803
807.8354	0.020351
808.5452	0.020773
809.2551	0.020098
809.9651	0.015712
810.6752	0.015354
811.3853	0.013941
812.0956	0.013393
812.8059	0.012950
813.5163	0.015290
814.2267	0.017631
814.9373	0.014805
815.6479	0.013435
816.3586	0.012655
817.0694	0.013034
817.7802	0.013245
818.4912	0.012149
819.2022	0.011790
819.9133	0.009914
820.6244	0.013140
821.3357	0.011685
822.0470	0.011158
822.7584	0.009850
823.4698	0.010019
824.1814	0.010209
824.8930	0.010694
825.6047	0.013519
826.3165	0.010462
827.0283	0.010609
827.7402	0.013372
828.4522	0.011284
829.1643	0.010504
829.8765	0.009049
830.5887	0.008480
831.3010	0.008290
832.0134	0.006371
832.7259	0.009197
833.4384	0.008438
834.1510	0.009408
834.8637	0.009787
835.5765	0.008353
836.2893	0.007742
837.0022	0.007573
837.7152	0.006709
838.4283	0.004937
839.1414	0.006182
839.8546	0.007088
840.5679	0.007004
841.2813	0.006456
841.9947	0.005254
842.7082	0.007362
843.4218	0.004368
844.1355	0.004832
844.8492	0.005127
845.5631	0.005675
846.2770	0.004769
846.9909	0.005043
847.7050	0.005043
848.4191	0.006688
849.1333	0.004326
849.8475	0.004495
850.5619	0.004769
851.2763	0.004959
851.9908	0.003693
852.7053	0.007700
853.4200	0.011811
854.1347	0.011284
854.8495	0.011706
855.5643	0.009998
856.2792	0.010609
856.9942	0.011938
857.7093	0.008227
858.4245	0.009091
859.1397	0.007636
859.8550	0.008438
860.5704	0.006498
861.2858	0.005486
862.0013	0.005528
862.7169	0.006435
863.4326	0.005781
864.1483	0.005865
864.8642	0.006582
865.5800	0.004748
866.2960	0.004305
867.0120	0.004937
867.7281	0.006076
868.4443	0.004790
869.1606	0.005444
869.8769	0.003483
870.5933	0.005760
871.3097	0.004579
872.0263	0.004748
872.7429	0.005359
873.4596	0.004347
874.1763	0.004874
874.8932	0.005802
875.6101	0.007130
876.3270	0.004200
877.0441	0.004495
877.7612	0.006055
878.4784	0.005781
879.1957	0.006920
879.9130	0.006118
880.6304	0.009323
881.3479	0.006751
882.0654	0.005992
882.7831	0.007489
883.5007	0.005528
884.2185	0.005823
884.9363	0.006772
885.6542	0.005675
886.3722	0.006224
887.0903	0.005654
887.8084	0.005401
888.5266	0.004916
889.2448	0.005844
889.9632	0.003946
890.6816	0.003925
891.4001	0.005697
892.1186	0.005907
892.8372	0.004431
893.5559	0.004495
894.2747	0.004937
894.9935	0.003820
895.7124	0.003525
896.4314	0.004537
897.1504	0.004284
897.8695	0.004790
898.5887	0.004832
899.3079	0.003230
900.0272	0.004326
900.7466	0.003778
901.4661	0.003946
902.1856	0.004136
902.9052	0.003546
903.6249	0.003862
904.3446	0.004579
905.0644	0.005422
905.7843	0.003588
906.5043	0.004242
907.2243	0.005043
907.9444	0.003925
908.6645	0.004347
909.3847	0.004431
910.1050	0.002112
910.8254	0.004748
911.5458	0.003946
912.2663	0.004115
912.9869	0.004284
913.7075	0.004790
914.4283	0.003208
915.1490	0.004115
915.8699	0.002513
916.5908	0.005591
917.3118	0.003272
918.0328	0.004431
918.7539	0.003904
919.4751	0.001142
920.1964	0.003230
920.9177	0.003989
921.6391	0.002281
922.3606	0.003883
923.0821	0.003251
923.8037	0.003208
924.5254	0.003693
925.2471	0.003019
925.9689	0.003293
926.6908	0.003651
927.4127	0.003588
928.1347	0.002850
928.8568	0.002702
929.5789	0.003103
930.3011	0.002281
931.0234	0.001479
931.7457	0.001733
932.4681	0.002534
933.1906	0.003546
933.9131	0.002070
934.6358	0.002597
935.3584	0.001437
936.0812	0.002449
936.8040	0.004495
937.5269	0.001817
938.2498	0.001395
938.9728	0.002217
939.6959	0.002998
940.4190	0.002260
941.1422	0.001416
941.8655	0.002049
942.5889	0.001311
943.3123	0.002576
944.0357	0.001669
944.7593	0.002239
945.4829	0.002977
946.2066	0.000720
946.9303	0.001838
947.6541	0.002386
948.3780	0.001943
949.1019	0.002829
949.8259	0.002112
950.5500	0.000847
951.2741	0.002471
951.9983	0.002070
952.7226	0.003061
953.4469	0.001922
954.1713	0.002702
954.8958	0.001754
955.6203	0.001205
956.3449	0.000446
957.0696	0.001543
957.7943	0.001205
958.5191	0.001226
959.2439	0.002091
959.9688	0.000531
960.6938	0.000678
961.4189	0.001269
962.1440	0.001648
962.8692	0.001648
963.5944	0.001796
964.3197	-0.000271
965.0451	0.000910
965.7705	0.002808
966.4960	0.000826
967.2216	0.000889
967.9472	0.001058
968.6729	0.002154
969.3987	0.001184
970.1245	0.000868
970.8504	0.001458
971.5763	0.000004
972.3023	0.001290
973.0284	-0.000313
973.7545	0.001184
974.4807	0.001290
975.2070	0.002555
975.9333	0.001248
976.6597	-0.000165
977.3862	0.001353
978.1127	0.002154
978.8393	0.000383
979.5659	0.000699
980.2926	0.001353
981.0194	0.001564
981.7462	0.000531
982.4731	0.002407
983.2001	0.000952
983.9271	0.001711
984.6542	0.000952
985.3814	0.000763
986.1086	0.000594
986.8358	0.000868
987.5632	0.002007
988.2906	0.001648
989.0180	0.000678
989.7456	0.001226
990.4732	-0.000081
991.2008	0.000278
991.9285	0.001458
992.6563	0.000720
993.3841	0.001016
994.1120	0.001817
994.8400	-0.000207
995.5680	0.000699
996.2961	-0.000144
997.0242	0.001564
997.7524	0.000910
998.4807	0.000467
999.2090	-0.000481
999.9374	-0.000123
1000.67	0.001775
1001.39	0.000720
1002.12	0.001353
1002.85	0.000467
1003.58	0.001880
1004.31	0.000172
1005.04	0.000446
1005.77	0.000678
1006.5	0.000720
1007.22	0.000826
1007.95	-0.000039
1008.68	0.000889
1009.41	0.001416
1010.14	0.000151
1010.87	0.001205
1011.6	0.001733
1012.33	0.001269
1013.06	-0.000250
1013.79	0.001100
1014.52	0.000699
1015.25	0.000552
1015.98	0.000193
1016.71	0.001353
1017.44	0.000446
1018.17	0.000615
1018.9	0.000995
1019.63	0.000299
1020.36	0.000446
1021.09	0.001901
1021.82	-0.001156
1022.55	-0.000418
1023.03	0.000995