File: Auto_Polymerization/Spectra/MRG-061-F5_spectra_while_stopped_with_alu_foil/spectrum_2025-06-20_09-37-21.txt
# Wavelength (nm)	Intensity (a.u.)
197.7802	0.000768
198.3922	0.000473
199.0044	0.000304
199.6168	0.000536
200.2292	0.000178
200.8418	0.000705
201.4546	0.002012
202.0674	0.001021
202.6805	0.000895
203.2936	0.001316
203.9069	0.000304
204.5203	0.000620
205.1338	0.001105
205.7475	0.000557
206.3614	-0.000160
206.9753	-0.000666
207.5894	0.000494
208.2036	0.000599
208.8180	0.001654
209.4325	-0.000118
210.0471	0.000768
210.6618	-0.000076
211.2767	0.000873
211.8918	0.001000
212.5069	0.001232
213.1222	0.001063
213.7376	-0.000118
214.3532	0.000684
214.9689	-0.000350
215.5847	0.000641
216.2007	-0.000202
216.8168	0.000262
217.4330	0.001443
218.0494	-0.000687
218.6659	0.000958
219.2825	-0.000181
219.8992	0.000473
220.5161	-0.000561
221.1332	0.000599
221.7503	-0.000054
222.3676	0.000831
222.9850	0.001865
223.6026	0.001127
224.2203	-0.000940
224.8381	-0.000139
225.4561	0.000473
226.0742	0.000410
226.6924	-0.000350
227.3107	0.000895
227.9292	-0.000371
228.5478	0.001190
229.1666	0.000178
229.7855	0.001063
230.4045	-0.000139
231.0236	0.001042
231.6429	-0.000350
232.2623	0.000241
232.8818	0.001612
233.5015	0.001042
234.1213	0.001105
234.7413	0.000895
235.3613	-0.000012
235.9815	0.001464
236.6018	-0.000729
237.2223	0.001569
237.8429	0.000262
238.4636	0.000452
239.0845	0.000873
239.7055	0.000557
240.3266	0.001485
240.9478	0.000958
241.5692	0.001464
242.1907	0.000388
242.8124	0.000241
243.4341	0.002097
244.0560	0.000494
244.6781	0.000051
245.3002	-0.000582
245.9225	0.001148
246.5449	-0.000624
247.1675	0.001148
247.7902	0.000473
248.4130	0.000515
249.0359	0.000410
249.6590	0.000810
250.2822	0.001696
250.9056	0.002139
251.5290	-0.000413
252.1526	0.000367
252.7763	0.000346
253.4002	0.002455
254.0242	0.000473
254.6483	0.001422
255.2725	0.000873
255.8969	0.001084
256.5214	0.000241
257.1460	0.001021
257.7708	-0.000814
258.3957	0.001844
259.0207	0.000599
259.6459	0.001169
260.2711	-0.001025
260.8965	0.000768
261.5221	0.001105
262.1477	0.000325
262.7735	-0.000097
263.3995	0.001443
264.0255	0.000494
264.6517	0.000283
265.2780	0.001063
265.9044	0.001063
266.5310	-0.000033
267.1577	0.000958
267.7845	0.000093
268.4114	0.001380
269.0385	-0.000645
269.6657	0.000895
270.2931	-0.000666
270.9205	-0.000076
271.5481	0.000262
272.1758	0.000199
272.8037	0.000895
273.4316	0.000789
274.0597	0.000810
274.6880	0.000726
275.3163	-0.000877
275.9448	0.000641
276.5734	0.001063
277.2022	0.000873
277.8310	0.001316
278.4600	0.001105
279.0891	-0.000350
279.7184	0.002814
280.3477	0.000684
280.9772	0.001928
281.6069	-0.000772
282.2366	0.000747
282.8665	-0.000772
283.4965	0.000199
284.1266	-0.000181
284.7569	0.001780
285.3873	-0.001193
286.0178	0.002118
286.6484	0.000051
287.2792	0.002265
287.9101	0.001359
288.5411	-0.000223
289.1723	0.000979
289.8035	-0.000582
290.4349	0.000262
291.0665	0.000114
291.6981	-0.000118
292.3299	-0.000160
292.9618	0.000852
293.5938	0.001105
294.2260	0.001021
294.8582	0.000578
295.4906	0.001105
296.1232	-0.000118
296.7558	0.001844
297.3886	0.000895
298.0215	0.000536
298.6545	0.001865
299.2877	0.000473
299.9210	0.001696
300.5544	0.000431
301.1879	0.001991
301.8215	0.000072
302.4553	0.001527
303.0892	0.000578
303.7233	0.000283
304.3574	0.000030
304.9917	0.000641
305.6261	-0.000476
306.2606	0.002582
306.8953	0.000958
307.5301	0.000473
308.1650	0.001253
308.8000	0.001801
309.4351	-0.000160
310.0704	0.000473
310.7058	0.000135
311.3413	0.001253
311.9770	0.001021
312.6127	0.001801
313.2486	-0.000350
313.8846	0.001105
314.5208	0.000283
315.1570	0.000937
315.7934	0.001527
316.4299	-0.000265
317.0666	-0.000540
317.7033	0.000220
318.3402	0.000093
318.9772	0.000494
319.6143	-0.000371
320.2516	-0.001151
320.8890	0.000641
321.5265	0.000262
322.1641	0.000494
322.8018	0.001359
323.4397	0.000852
324.0777	0.000431
324.7158	0.001295
325.3540	0.001422
325.9924	-0.000118
326.6308	0.000051
327.2694	0.000831
327.9082	0.001148
328.5470	0.000831
329.1860	0.000578
329.8251	0.000515
330.4643	0.000895
331.1036	0.000072
331.7431	-0.000181
332.3826	0.001949
333.0223	0.000283
333.6622	0.001316
334.3021	0.000726
334.9422	0.000768
335.5823	0.001084
336.2227	0.001232
336.8631	0.002434
337.5036	-0.000856
338.1443	0.001063
338.7851	-0.000624
339.4260	0.000494
340.0670	-0.000666
340.7082	0.000895
341.3495	-0.000603
341.9909	0.001801
342.6324	0.000431
343.2740	0.000810
343.9158	0.000388
344.5577	0.000009
345.1997	0.000663
345.8418	0.001949
346.4840	0.000494
347.1264	0.001021
347.7689	0.001506
348.4115	-0.000624
349.0542	-0.001025
349.6971	0.001801
350.3400	0.000283
350.9831	0.002033
351.6263	-0.000308
352.2696	0.001443
352.9131	-0.000518
353.5566	0.000958
354.2003	0.000810
354.8441	0.000705
355.4881	0.000873
356.1321	0.000747
356.7763	-0.000160
357.4206	0.000051
358.0650	0.001506
358.7095	-0.000582
359.3541	0.001232
359.9989	0.000135
360.6438	0.000515
361.2888	0.002118
361.9339	0.000093
362.5791	0.000726
363.2245	0.001675
363.8699	0.001042
364.5155	0.001337
365.1612	0.001127
365.8071	0.000283
366.4530	0.001759
367.0991	-0.000434
367.7453	0.000578
368.3916	0.000663
369.0380	0.003130
369.6845	0.000178
370.3312	0.000684
370.9780	-0.000497
371.6249	-0.000392
372.2719	0.000199
372.9190	0.001738
373.5663	-0.000139
374.2136	0.002033
374.8611	0.000684
375.5087	0.001274
376.1564	-0.000265
376.8043	0.000388
377.4522	-0.000582
378.1003	0.000325
378.7485	0.000494
379.3968	0.001443
380.0452	-0.000181
380.6938	0.003025
381.3424	0.000937
381.9912	0.000768
382.6401	0.002097
383.2891	0.000726
383.9382	0.000093
384.5875	0.001780
385.2368	0.000494
385.8863	0.001105
386.5359	0.000494
387.1856	0.001105
387.8355	0.000599
388.4854	0.001253
389.1355	0.001063
389.7856	0.001886
390.4359	0.001253
391.0863	0.002265
391.7369	0.002772
392.3875	0.003362
393.0383	0.003784
393.6891	0.004058
394.3401	0.002624
394.9912	0.004185
395.6425	0.004417
396.2938	0.005324
396.9453	0.004902
397.5968	0.006420
398.2485	0.007897
398.9003	0.008086
399.5522	0.007960
400.2043	0.007812
400.8564	0.007179
401.5087	0.007833
402.1610	0.009668
402.8135	0.009225
403.4661	0.010364
404.1189	0.010554
404.7717	0.011187
405.4246	0.012642
406.0777	0.011566
406.7309	0.012684
407.3842	0.011672
408.0376	0.012241
408.6911	0.012536
409.3448	0.014540
409.9985	0.014561
410.6524	0.012072
411.3064	0.015805
411.9605	0.014076
412.6147	0.015742
413.2690	0.016164
413.9234	0.015890
414.5780	0.016164
415.2326	0.016459
415.8874	0.017598
416.5423	0.015510
417.1973	0.016143
417.8524	0.016312
418.5077	0.017535
419.1630	0.015911
419.8185	0.016396
420.4741	0.019602
421.1298	0.021268
421.7856	0.020340
422.4415	0.021521
423.0975	0.021352
423.7536	0.018716
424.4099	0.022364
425.0663	0.019074
425.7228	0.019159
426.3793	0.019433
427.0361	0.020276
427.6929	0.021268
428.3498	0.022027
429.0068	0.021015
429.6640	0.023166
430.3213	0.023124
430.9787	0.024241
431.6362	0.019728
432.2938	0.019834
432.9515	0.018315
433.6093	0.022153
434.2673	0.023060
434.9253	0.020466
435.5835	0.020298
436.2418	0.021394
436.9001	0.020382
437.5586	0.021415
438.2173	0.020129
438.8760	0.021436
439.5348	0.022702
440.1938	0.019749
440.8528	0.022744
441.5120	0.027995
442.1713	0.024980
442.8307	0.023588
443.4902	0.023503
444.1498	0.024769
444.8095	0.023904
445.4694	0.022132
446.1293	0.023588
446.7894	0.023229
447.4496	0.022048
448.1098	0.020213
448.7702	0.019665
449.4307	0.021732
450.0914	0.020403
450.7521	0.021415
451.4129	0.019960
452.0739	0.019475
452.7349	0.017535
453.3961	0.016881
454.0574	0.016712
454.7188	0.018062
455.3803	0.015805
456.0419	0.017471
456.7036	0.015510
457.3654	0.015890
458.0274	0.015004
458.6894	0.015679
459.3516	0.016375
460.0138	0.015974
460.6762	0.013232
461.3387	0.016206
462.0013	0.013907
462.6640	0.012684
463.3268	0.012579
463.9897	0.012789
464.6528	0.013232
465.3159	0.013844
465.9792	0.013317
466.6425	0.011883
467.3060	0.011440
467.9696	0.012347
468.6333	0.010385
469.2970	0.007939
469.9610	0.009436
470.6250	0.007201
471.2891	0.006842
471.9533	0.007475
472.6177	0.008424
473.2821	0.007854
473.9467	0.008466
474.6113	0.008424
475.2761	0.008044
475.9410	0.006758
476.6060	0.005893
477.2711	0.008361
477.9363	0.006800
478.6016	0.008002
479.2670	0.005661
479.9325	0.006167
480.5982	0.007390
481.2639	0.006462
481.9298	0.005450
482.5957	0.005366
483.2618	0.005682
483.9280	0.006336
484.5943	0.005682
485.2606	0.004712
485.9271	0.018041
486.5937	0.009436
487.2605	0.007137
487.9273	0.005724
488.5942	0.004058
489.2612	0.003193
489.9284	0.003910
490.5956	0.003004
491.2630	0.004185
491.9304	0.002898
492.5980	0.003067
493.2657	0.003236
493.9334	0.004860
494.6013	0.004522
495.2693	0.003341
495.9374	0.004438
496.6056	0.003278
497.2739	0.002898
497.9423	0.002076
498.6109	0.002645
499.2795	0.003362
499.9482	0.003594
500.6171	0.002919
501.2860	0.002793
501.9551	0.004881
502.6242	0.001991
503.2935	0.002835
503.9628	0.002350
504.6323	0.003172
505.3019	0.002455
505.9716	0.003489
506.6414	0.002055
507.3113	0.004037
507.9813	0.002793
508.6514	0.005007
509.3216	0.003446
509.9919	0.002814
510.6623	0.001844
511.3329	0.001991
512.0035	0.003510
512.6742	0.003531
513.3451	0.003278
514.0160	0.002561
514.6871	0.002244
515.3582	0.002519
516.0295	0.002645
516.7008	0.004037
517.3723	0.003193
518.0439	0.003362
518.7155	0.002413
519.3873	0.002877
520.0592	0.003193
520.7312	0.002645
521.4033	0.003615
522.0755	0.002940
522.7478	0.002835
523.4202	0.003910
524.0927	0.003320
524.7653	0.003678
525.4380	0.004121
526.1108	0.003278
526.7837	0.002455
527.4568	0.003974
528.1299	0.003678
528.8031	0.003657
529.4765	0.003636
530.1499	0.004227
530.8234	0.004754
531.4971	0.003932
532.1708	0.005619
532.8447	0.006251
533.5186	0.005893
534.1927	0.006209
534.8668	0.006694
535.5411	0.006758
536.2155	0.006041
536.8899	0.006779
537.5645	0.006652
538.2392	0.008592
538.9139	0.006821
539.5888	0.008993
540.2638	0.008930
540.9389	0.008930
541.6140	0.010448
542.2893	0.009542
542.9647	0.012304
543.6402	0.009774
544.3158	0.012093
544.9915	0.011798
545.6673	0.012220
546.3432	0.013422
547.0192	0.014962
547.6953	0.014392
548.3715	0.017450
549.0478	0.015742
549.7242	0.016185
550.4007	0.013338
551.0773	0.013380
551.7540	0.015637
552.4308	0.019327
553.1077	0.019032
553.7847	0.019412
554.4618	0.020002
555.1390	0.020213
555.8163	0.021900
556.4937	0.021711
557.1712	0.022533
557.8488	0.021479
558.5266	0.020888
559.2044	0.021500
559.8823	0.022491
560.5603	0.023714
561.2384	0.028502
561.9166	0.028713
562.5949	0.027257
563.2733	0.027890
563.9519	0.031011
564.6305	0.033247
565.3092	0.033837
565.9880	0.033795
566.6669	0.035419
567.3459	0.041409
568.0250	0.048601
568.7043	0.052523
569.3836	0.064650
570.0630	0.083948
570.7425	0.088946
571.4221	0.106514
572.1018	0.116427
572.7816	0.097952
573.4615	0.114866
574.1415	0.131928
574.8216	0.146522
575.5018	0.146501
576.1821	0.129608
576.8626	0.151689
577.5431	0.163437
578.2237	0.206060
578.9044	0.168920
579.5851	0.165757
580.2660	0.175163
580.9470	0.169532
581.6281	0.268192
582.3093	0.256613
582.9906	0.199353
583.6720	0.163985
584.3535	0.161897
585.0351	0.186298
585.7167	0.195789
586.3985	0.169279
587.0804	0.175078
587.7624	0.194186
588.4445	0.168456
589.1266	0.150382
589.8089	0.135281
590.4913	0.126698
591.1737	0.108982
591.8563	0.108792
592.5389	0.129292
593.2217	0.171514
593.9046	0.162888
594.5875	0.144730
595.2705	0.164386
595.9537	0.140280
596.6369	0.119569
597.3203	0.124989
598.0037	0.118557
598.6872	0.131000
599.3709	0.154537
600.0546	0.149749
600.7384	0.149918
601.4223	0.154136
602.1064	0.141925
602.7905	0.142621
603.4747	0.157531
604.1590	0.149728
604.8434	0.131084
605.5279	0.134121
606.2125	0.145299
606.8972	0.132518
607.5819	0.132202
608.2668	0.127394
608.9518	0.120602
609.6369	0.109636
610.3220	0.126951
611.0073	0.116152
611.6927	0.115119
612.3781	0.110036
613.0637	0.107189
613.7493	0.104004
614.4351	0.107295
615.1209	0.106999
615.8068	0.109572
616.4929	0.097150
617.1790	0.092995
617.8652	0.092658
618.5515	0.086141
619.2379	0.077515
619.9244	0.078844
620.6110	0.080426
621.2977	0.063322
621.9845	0.070176
622.6714	0.070914
623.3584	0.075448
624.0454	0.074331
624.7326	0.074457
625.4199	0.071441
626.1072	0.062499
626.7947	0.060580
627.4822	0.062562
628.1698	0.054485
628.8576	0.049191
629.5454	0.053704
630.2333	0.051005
630.9213	0.048769
631.6094	0.044235
632.2976	0.042991
632.9859	0.038245
633.6743	0.036368
634.3628	0.036579
635.0514	0.035187
635.7400	0.033964
636.4288	0.039595
637.1177	0.036811
637.8066	0.033753
638.4957	0.035440
639.1848	0.036305
639.8740	0.032910
640.5633	0.031558
641.2528	0.029624
641.9423	0.026737
642.6319	0.025269
643.3216	0.025076
644.0113	0.024960
644.7012	0.022777
645.3912	0.022765
646.0812	0.022187
646.7714	0.021590
647.4616	0.021674
648.1520	0.024076
648.8424	0.028141
649.5329	0.028959
650.2236	0.024416
650.9143	0.023021
651.6051	0.026124
652.2960	0.025734
652.9870	0.026815
653.6780	0.027387
654.3692	0.030265
655.0605	0.048946
655.7518	0.808390
656.4433	1.000000
657.1348	0.738367
657.8264	0.450245
658.5181	0.336829
659.2099	0.246252
659.9018	0.063634
660.5938	0.024337
661.2859	0.021462
661.9781	0.020717
662.6704	0.019546
663.3627	0.019353
664.0552	0.018650
664.7477	0.019702
665.4403	0.021844
666.1330	0.019814
666.8259	0.018667
667.5188	0.018255
668.2117	0.017917
668.9048	0.018737
669.5980	0.017577
670.2913	0.018357
670.9846	0.018273
671.6781	0.023482
672.3716	0.030421
673.0652	0.028966
673.7589	0.026266
674.4527	0.025106
675.1466	0.022301
675.8406	0.021900
676.5347	0.020846
677.2288	0.020066
677.9231	0.024790
678.6174	0.028523
679.3119	0.026667
680.0064	0.030800
680.7010	0.029957
681.3957	0.030062
682.0905	0.027932
682.7854	0.026878
683.4803	0.026878
684.1754	0.028776
684.8705	0.033057
685.5658	0.037275
686.2611	0.037887
686.9565	0.037402
687.6520	0.036432
688.3476	0.032467
689.0433	0.031665
689.7390	0.030463
690.4349	0.029999
691.1308	0.029851
691.8269	0.032867
692.5230	0.032635
693.2192	0.033648
693.9155	0.029409
694.6119	0.028607
695.3083	0.029155
696.0049	0.023714
696.7016	0.029725
697.3983	0.034597
698.0951	0.032530
698.7920	0.031075
699.4890	0.028164
700.1861	0.024980
700.8833	0.027131
701.5806	0.024537
702.2779	0.026604
702.9753	0.024642
703.6729	0.022997
704.3705	0.024031
705.0682	0.023672
705.7660	0.021858
706.4638	0.026266
707.1618	0.031602
707.8599	0.032424
708.5580	0.032488
709.2562	0.030294
709.9545	0.030126
710.6529	0.030231
711.3514	0.026245
712.0500	0.026118
712.7486	0.023651
713.4474	0.028249
714.1462	0.028734
714.8451	0.031243
715.5441	0.030020
716.2432	0.025929
716.9424	0.024094
717.6416	0.024579
718.3410	0.023841
719.0404	0.024473
719.7399	0.024853
720.4395	0.024389
721.1392	0.025823
721.8390	0.025148
722.5388	0.025549
723.2388	0.025001
723.9388	0.024368
724.6389	0.023166
725.3391	0.029240
726.0394	0.027679
726.7398	0.028523
727.4403	0.026414
728.1408	0.030885
728.8414	0.029366
729.5421	0.031855
730.2429	0.031159
730.9438	0.036938
731.6448	0.036558
732.3458	0.034154
733.0470	0.037549
733.7482	0.038372
734.4495	0.045205
735.1509	0.039469
735.8524	0.043096
736.5539	0.040502
737.2556	0.041957
737.9573	0.037360
738.6591	0.034871
739.3610	0.040924
740.0630	0.037022
740.7651	0.032192
741.4672	0.029851
742.1695	0.030969
742.8718	0.030632
743.5742	0.026118
744.2767	0.025739
744.9792	0.025612
745.6819	0.022259
746.3846	0.026625
747.0874	0.023292
747.7903	0.025950
748.4933	0.023588
749.1964	0.026308
749.8995	0.030927
750.6028	0.035398
751.3061	0.031750
752.0095	0.033395
752.7130	0.031623
753.4166	0.034386
754.1202	0.036200
754.8239	0.034618
755.5278	0.035461
756.2317	0.039237
756.9356	0.043455
757.6397	0.048158
758.3438	0.049170
759.0481	0.044361
759.7524	0.049950
760.4568	0.052207
761.1613	0.054632
761.8658	0.045521
762.5705	0.043961
763.2752	0.039911
763.9800	0.041050
764.6849	0.048727
765.3898	0.049866
766.0949	0.042252
766.8000	0.035525
767.5052	0.034280
768.2105	0.037254
768.9159	0.039447
769.6214	0.039701
770.3269	0.039237
771.0325	0.044383
771.7382	0.039722
772.4440	0.035272
773.1499	0.035925
773.8558	0.032952
774.5618	0.027827
775.2679	0.025317
775.9741	0.023461
776.6804	0.021964
777.3868	0.022301
778.0932	0.021795
778.7997	0.025106
779.5063	0.026751
780.2130	0.023630
780.9197	0.027953
781.6265	0.028607
782.3335	0.027827
783.0405	0.028227
783.7475	0.028544
784.4547	0.026709
785.1619	0.025085
785.8692	0.022828
786.5766	0.023756
787.2841	0.024937
787.9917	0.026920
788.6993	0.024052
789.4070	0.025718
790.1148	0.022196
790.8227	0.019454
791.5306	0.021289
792.2387	0.020972
792.9468	0.018779
793.6550	0.019538
794.3632	0.025106
795.0716	0.028417
795.7800	0.024052
796.4885	0.020466
797.1971	0.019665
797.9058	0.022048
798.6145	0.019306
799.3233	0.019580
800.0322	0.016944
800.7412	0.017345
801.4503	0.015405
802.1594	0.014835
802.8686	0.014245
803.5779	0.016058
804.2873	0.014751
804.9968	0.016248
805.7063	0.015257
806.4159	0.021837
807.1256	0.019728
807.8354	0.017788
808.5452	0.019433
809.2551	0.017725
809.9651	0.017978
810.6752	0.016164
811.3853	0.017218
812.0956	0.013992
812.8059	0.011229
813.5163	0.013359
814.2267	0.015173
814.9373	0.014772
815.6479	0.011883
816.3586	0.011102
817.0694	0.010702
817.7802	0.011334
818.4912	0.012579
819.2022	0.010512
819.9133	0.010680
820.6244	0.012853
821.3357	0.013127
822.0470	0.011883
822.7584	0.011334
823.4698	0.010491
824.1814	0.010280
824.8930	0.010912
825.6047	0.013232
826.3165	0.010470
827.0283	0.011250
827.7402	0.011988
828.4522	0.008592
829.1643	0.010680
829.8765	0.011102
830.5887	0.010280
831.3010	0.008614
832.0134	0.008002
832.7259	0.008972
833.4384	0.007728
834.1510	0.007854
834.8637	0.009352
835.5765	0.009225
836.2893	0.007327
837.0022	0.005408
837.7152	0.005408
838.4283	0.004775
839.1414	0.005513
839.8546	0.006188
840.5679	0.008150
841.2813	0.005450
841.9947	0.005745
842.7082	0.004838
843.4218	0.003953
844.1355	0.004838
844.8492	0.004206
845.5631	0.004480
846.2770	0.004269
846.9909	0.004480
847.7050	0.003995
848.4191	0.004332
849.1333	0.004986
849.8475	0.004860
850.5619	0.004712
851.2763	0.004923
851.9908	0.004332
852.7053	0.007580
853.4200	0.012093
854.1347	0.011524
854.8495	0.012389
855.5643	0.010891
856.2792	0.010596
856.9942	0.011503
857.7093	0.009542
858.4245	0.009352
859.1397	0.008171
859.8550	0.007264
860.5704	0.004733
861.2858	0.005809
862.0013	0.005577
862.7169	0.005830
863.4326	0.006884
864.1483	0.005366
864.8642	0.004353
865.5800	0.003974
866.2960	0.004185
867.0120	0.006125
867.7281	0.004480
868.4443	0.005049
869.1606	0.004944
869.8769	0.003341
870.5933	0.003404
871.3097	0.005113
872.0263	0.005007
872.7429	0.005724
873.4596	0.003932
874.1763	0.004480
874.8932	0.004902
875.6101	0.006019
876.3270	0.004860
877.0441	0.005345
877.7612	0.003489
878.4784	0.005345
879.1957	0.006420
879.9130	0.006315
880.6304	0.007918
881.3479	0.006462
882.0654	0.005619
882.7831	0.005134
883.5007	0.006357
884.2185	0.005787
884.9363	0.005577
885.6542	0.006842
886.3722	0.006336
887.0903	0.005471
887.8084	0.004142
888.5266	0.005450
889.2448	0.004037
889.9632	0.003805
890.6816	0.004079
891.4001	0.005640
892.1186	0.004227
892.8372	0.003678
893.5559	0.003721
894.2747	0.004396
894.9935	0.003974
895.7124	0.003088
896.4314	0.004986
897.1504	0.004902
897.8695	0.003088
898.5887	0.004733
899.3079	0.004206
900.0272	0.004121
900.7466	0.005134
901.4661	0.002940
902.1856	0.004775
902.9052	0.003763
903.6249	0.005598
904.3446	0.003868
905.0644	0.004374
905.7843	0.005092
906.5043	0.004965
907.2243	0.004058
907.9444	0.003889
908.6645	0.004121
909.3847	0.003172
910.1050	0.002582
910.8254	0.002983
911.5458	0.003932
912.2663	0.003636
912.9869	0.004227
913.7075	0.003446
914.4283	0.002350
915.1490	0.004290
915.8699	0.003868
916.5908	0.003067
917.3118	0.003320
918.0328	0.003636
918.7539	0.004881
919.4751	0.003910
920.1964	0.004396
920.9177	0.003636
921.6391	0.002835
922.3606	0.003763
923.0821	0.003510
923.8037	0.003889
924.5254	0.002793
925.2471	0.002835
925.9689	0.000599
926.6908	0.001865
927.4127	0.002434
928.1347	0.002582
928.8568	0.003383
929.5789	0.002202
930.3011	0.001907
931.0234	0.002856
931.7457	0.002244
932.4681	0.001675
933.1906	0.002350
933.9131	0.002308
934.6358	0.001633
935.3584	0.001717
936.0812	0.002097
936.8040	0.001928
937.5269	0.000557
938.2498	0.002392
938.9728	0.002645
939.6959	0.000768
940.4190	0.001063
941.1422	0.000873
941.8655	0.002118
942.5889	0.000810
943.3123	0.001633
944.0357	0.001696
944.7593	0.002603
945.4829	0.000937
946.2066	0.001717
946.9303	0.000620
947.6541	0.001127
948.3780	0.001738
949.1019	0.000916
949.8259	0.001042
950.5500	0.001612
951.2741	0.002793
951.9983	0.001612
952.7226	0.001295
953.4469	0.002287
954.1713	0.000895
954.8958	0.000093
955.6203	0.002729
956.3449	0.002118
957.0696	0.001696
957.7943	0.001928
958.5191	0.001506
959.2439	0.001021
959.9688	0.001844
960.6938	0.000410
961.4189	0.000895
962.1440	0.001000
962.8692	0.001021
963.5944	0.000937
964.3197	0.003109
965.0451	0.001991
965.7705	0.001401
966.4960	0.001485
967.2216	0.001633
967.9472	0.002181
968.6729	0.000578
969.3987	0.001907
970.1245	0.002413
970.8504	-0.000160
971.5763	0.000283
972.3023	0.000114
973.0284	0.000810
973.7545	0.001675
974.4807	-0.000982
975.2070	0.001105
975.9333	-0.000286
976.6597	0.001759
977.3862	0.000937
978.1127	0.001000
978.8393	0.000852
979.5659	0.000747
980.2926	0.000388
981.0194	0.000747
981.7462	0.000051
982.4731	0.000452
983.2001	0.001759
983.9271	0.000895
984.6542	0.000431
985.3814	0.000262
986.1086	0.000304
986.8358	0.000494
987.5632	0.000494
988.2906	0.000135
989.0180	0.000156
989.7456	0.001949
990.4732	0.000009
991.2008	0.000831
991.9285	-0.001025
992.6563	0.000768
993.3841	-0.000244
994.1120	0.001021
994.8400	0.000093
995.5680	0.000262
996.2961	0.001401
997.0242	0.000747
997.7524	-0.000308
998.4807	0.000747
999.2090	0.000220
999.9374	0.000410
1000.67	-0.000202
1001.39	0.000937
1002.12	0.001485
1002.85	0.001063
1003.58	0.000262
1004.31	-0.001910
1005.04	0.000494
1005.77	0.000599
1006.5	0.000515
1007.22	0.000304
1007.95	0.001148
1008.68	0.000051
1009.41	0.001063
1010.14	0.000093
1010.87	0.001084
1011.6	0.001949
1012.33	-0.000329
1013.06	0.001042
1013.79	0.001970
1014.52	-0.000244
1015.25	0.001844
1015.98	-0.001004
1016.71	0.002033
1017.44	0.002645
1018.17	-0.000329
1018.9	-0.000265
1019.63	0.001000
1020.36	-0.000202
1021.09	0.000599
1021.82	0.000431
1022.55	0.001991
1023.03	0.000578