File: Auto_Polymerization/Spectra/MRG-061-F5_spectra_while_stopped_with_alu_foil/spectrum_2025-06-20_09-11-47.txt
# Wavelength (nm)	Intensity (a.u.)
197.7802	-0.000677
198.3922	0.000695
199.0044	-0.000065
199.6168	-0.000867
200.2292	-0.001099
200.8418	-0.001162
201.4546	-0.000445
202.0674	-0.001985
202.6805	-0.000171
203.2936	-0.000508
203.9069	0.000273
204.5203	-0.000740
205.1338	-0.000192
205.7475	-0.001458
206.3614	0.000484
206.9753	0.000273
207.5894	0.000821
208.2036	-0.000466
208.8180	0.000927
209.4325	-0.000698
210.0471	-0.000065
210.6618	0.001053
211.2767	-0.000213
211.8918	0.000104
212.5069	0.000273
213.1222	-0.001141
213.7376	-0.000128
214.3532	-0.001099
214.9689	0.000083
215.5847	-0.000107
216.2007	0.000758
216.8168	-0.000972
217.4330	0.001032
218.0494	-0.000424
218.6659	0.000505
219.2825	0.000420
219.8992	-0.000171
220.5161	0.000990
221.1332	-0.000318
221.7503	-0.000403
222.3676	0.000906
222.9850	-0.000445
223.6026	0.000146
224.2203	-0.000825
224.8381	0.001243
225.4561	-0.000213
226.0742	0.000125
226.6924	-0.000149
227.3107	-0.000930
227.9292	0.000484
228.5478	-0.000086
229.1666	-0.000635
229.7855	-0.000297
230.4045	0.000167
231.0236	-0.000107
231.6429	0.000884
232.2623	0.000083
232.8818	-0.000550
233.5015	-0.001057
234.1213	-0.000297
234.7413	-0.000065
235.3613	0.000505
235.9815	0.000568
236.6018	0.000547
237.2223	-0.001204
237.8429	-0.000804
238.4636	0.001095
239.0845	0.001285
239.7055	-0.000255
240.3266	0.000779
240.9478	-0.000782
241.5692	-0.000149
242.1907	0.000336
242.8124	-0.000360
243.4341	-0.000888
244.0560	-0.000993
244.6781	-0.000888
245.3002	-0.000529
245.9225	-0.000719
246.5449	-0.000635
247.1675	-0.001057
247.7902	0.000842
248.4130	0.000146
249.0359	0.001496
249.6590	0.000146
250.2822	0.000906
250.9056	0.000631
251.5290	-0.001331
252.1526	0.000652
252.7763	0.000716
253.4002	0.000315
254.0242	0.000652
254.6483	-0.000635
255.2725	-0.001268
255.8969	-0.000276
256.5214	-0.000171
257.1460	0.001834
257.7708	-0.000719
258.3957	-0.001415
259.0207	-0.001331
259.6459	-0.000192
260.2711	-0.000171
260.8965	0.000568
261.5221	-0.000065
262.1477	0.000779
262.7735	-0.000339
263.3995	0.000716
264.0255	0.000863
264.6517	0.000589
265.2780	0.000251
265.9044	0.000737
266.5310	-0.000107
267.1577	-0.000234
267.7845	0.001117
268.4114	0.000209
269.0385	-0.001036
269.6657	-0.000339
270.2931	-0.002048
270.9205	0.000230
271.5481	-0.000972
272.1758	0.000040
272.8037	-0.000930
273.4316	0.000547
274.0597	-0.000761
274.6880	-0.000171
275.3163	-0.000804
275.9448	0.000505
276.5734	-0.000951
277.2022	0.001665
277.8310	-0.001015
278.4600	0.000294
279.0891	0.000652
279.7184	0.001074
280.3477	-0.001415
280.9772	0.001201
281.6069	-0.000466
282.2366	0.000842
282.8665	-0.000571
283.4965	-0.000065
284.1266	-0.000614
284.7569	0.000906
285.3873	-0.000951
286.0178	0.000146
286.6484	-0.000213
287.2792	0.000568
287.9101	-0.000403
288.5411	-0.000571
289.1723	0.000125
289.8035	-0.000149
290.4349	-0.001415
291.0665	-0.000656
291.6981	0.000652
292.3299	0.000990
292.9618	-0.000951
293.5938	0.001749
294.2260	-0.000128
294.8582	0.000062
295.4906	0.000146
296.1232	-0.000086
296.7558	-0.000571
297.3886	0.000589
298.0215	0.000273
298.6545	0.000167
299.2877	-0.000424
299.9210	0.000315
300.5544	0.000547
301.1879	-0.000719
301.8215	0.000251
302.4553	0.000652
303.0892	0.000441
303.7233	0.000526
304.3574	-0.001226
304.9917	0.000547
305.6261	0.000019
306.2606	-0.000086
306.8953	-0.000297
307.5301	-0.000234
308.1650	-0.001162
308.8000	-0.000360
309.4351	-0.000044
310.0704	-0.000297
310.7058	-0.000993
311.3413	-0.000107
311.9770	0.000948
312.6127	0.000125
313.2486	-0.000192
313.8846	0.000568
314.5208	-0.000107
315.1570	0.000019
315.7934	-0.000698
316.4299	-0.000867
317.0666	-0.000171
317.7033	0.000842
318.3402	0.000737
318.9772	-0.000149
319.6143	-0.001141
320.2516	0.000315
320.8890	-0.000192
321.5265	0.001095
322.1641	0.000800
322.8018	-0.000339
323.4397	0.000188
324.0777	-0.000782
324.7158	-0.001437
325.3540	0.001053
325.9924	-0.001226
326.6308	0.000315
327.2694	-0.000149
327.9082	0.001327
328.5470	0.000125
329.1860	0.001602
329.8251	-0.000192
330.4643	0.000188
331.1036	0.000336
331.7431	0.000167
332.3826	0.000167
333.0223	0.000758
333.6622	-0.001373
334.3021	0.000610
334.9422	0.000547
335.5823	0.001665
336.2227	-0.000149
336.8631	0.000716
337.5036	0.000842
338.1443	0.000378
338.7851	-0.001690
339.4260	0.000695
340.0670	0.000631
340.7082	-0.000867
341.3495	-0.000635
341.9909	-0.000761
342.6324	-0.000149
343.2740	0.000019
343.9158	-0.000382
344.5577	-0.000171
345.1997	-0.000993
345.8418	0.000315
346.4840	-0.000445
347.1264	0.001475
347.7689	0.000146
348.4115	0.000315
349.0542	0.001053
349.6971	0.001159
350.3400	0.001095
350.9831	0.000294
351.6263	-0.000403
352.2696	-0.000339
352.9131	-0.000360
353.5566	0.000779
354.2003	-0.000403
354.8441	0.000399
355.4881	-0.000382
356.1321	-0.000318
356.7763	-0.001120
357.4206	0.000779
358.0650	0.000800
358.7095	0.000441
359.3541	-0.001162
359.9989	-0.000382
360.6438	0.000990
361.2888	0.000863
361.9339	0.000378
362.5791	0.001201
363.2245	-0.000192
363.8699	0.001243
364.5155	-0.000761
365.1612	-0.000339
365.8071	-0.000107
366.4530	0.000652
367.0991	-0.000635
367.7453	0.000673
368.3916	0.000884
369.0380	-0.000635
369.6845	-0.000614
370.3312	0.000884
370.9780	-0.000804
371.6249	-0.000888
372.2719	-0.000297
372.9190	-0.000107
373.5663	-0.000614
374.2136	-0.000382
374.8611	-0.000339
375.5087	0.000357
376.1564	0.000441
376.8043	-0.000656
377.4522	0.000610
378.1003	-0.000086
378.7485	-0.001204
379.3968	-0.001648
380.0452	-0.000951
380.6938	0.000315
381.3424	0.000758
381.9912	0.002973
382.6401	0.000294
383.2891	-0.000234
383.9382	0.001117
384.5875	0.002171
385.2368	0.000673
385.8863	0.000758
386.5359	0.000695
387.1856	0.001454
387.8355	0.001855
388.4854	0.000695
389.1355	0.001644
389.7856	0.003205
390.4359	0.001918
391.0863	0.002530
391.7369	0.005168
392.3875	0.003606
393.0383	0.005231
393.6891	0.006539
394.3401	0.008079
394.9912	0.008607
395.6425	0.008670
396.2938	0.008881
396.9453	0.009176
397.5968	0.010463
398.2485	0.011265
398.9003	0.013333
399.5522	0.013375
400.2043	0.015190
400.8564	0.014683
401.5087	0.015274
402.1610	0.016287
402.8135	0.015169
403.4661	0.017004
404.1189	0.017553
404.7717	0.018777
405.4246	0.020760
406.0777	0.019367
406.7309	0.018629
407.3842	0.019346
408.0376	0.018355
408.6911	0.021161
409.3448	0.019241
409.9985	0.020507
410.6524	0.020718
411.3064	0.020718
411.9605	0.019853
412.6147	0.024284
413.2690	0.022026
413.9234	0.022511
414.5780	0.024305
415.2326	0.023925
415.8874	0.022828
416.5423	0.022870
417.1973	0.023334
417.8524	0.022321
418.5077	0.023883
419.1630	0.023672
419.8185	0.023566
420.4741	0.022659
421.1298	0.025971
421.7856	0.030592
422.4415	0.027892
423.0975	0.028567
423.7536	0.024642
424.4099	0.025739
425.0663	0.025402
425.7228	0.024811
426.3793	0.023904
427.0361	0.023756
427.6929	0.024178
428.3498	0.023798
429.0068	0.024600
429.6640	0.028314
430.3213	0.026858
430.9787	0.027385
431.6362	0.025887
432.2938	0.022828
432.9515	0.024009
433.6093	0.024347
434.2673	0.027617
434.9253	0.023524
435.5835	0.023060
436.2418	0.023418
436.9001	0.026752
437.5586	0.021963
438.2173	0.023629
438.8760	0.024389
439.5348	0.023334
440.1938	0.023925
440.8528	0.022891
441.5120	0.030508
442.1713	0.027048
442.8307	0.027512
443.4902	0.026351
444.1498	0.027195
444.8095	0.027617
445.4694	0.026942
446.1293	0.024516
446.7894	0.024199
447.4496	0.024558
448.1098	0.023798
448.7702	0.023271
449.4307	0.023693
450.0914	0.021562
450.7521	0.023925
451.4129	0.019642
452.0739	0.020992
452.7349	0.021456
453.3961	0.017933
454.0574	0.018861
454.7188	0.017257
455.3803	0.018692
456.0419	0.016624
456.7036	0.014726
457.3654	0.016456
458.0274	0.016603
458.6894	0.017426
459.3516	0.017321
460.0138	0.016287
460.6762	0.015759
461.3387	0.015654
462.0013	0.013059
462.6640	0.012067
463.3268	0.013628
463.9897	0.014261
464.6528	0.015063
465.3159	0.014346
465.9792	0.014768
466.6425	0.011244
467.3060	0.011898
467.9696	0.010949
468.6333	0.011434
469.2970	0.009936
469.9610	0.008944
470.6250	0.008586
471.2891	0.007678
471.9533	0.006877
472.6177	0.007721
473.2821	0.008965
473.9467	0.009641
474.6113	0.006919
475.2761	0.009641
475.9410	0.006771
476.6060	0.008100
477.2711	0.007636
477.9363	0.006940
478.6016	0.006033
479.2670	0.007214
479.9325	0.006476
480.5982	0.008902
481.2639	0.005231
481.9298	0.006729
482.5957	0.004851
483.2618	0.005104
483.9280	0.005273
484.5943	0.004851
485.2606	0.004788
485.9271	0.018502
486.5937	0.012658
487.2605	0.009071
487.9273	0.005273
488.5942	0.006919
489.2612	0.003079
489.9284	0.005315
490.5956	0.003480
491.2630	0.005336
491.9304	0.002488
492.5980	0.004007
493.2657	0.003269
493.9334	0.003648
494.6013	0.004176
495.2693	0.004007
495.9374	0.002826
496.6056	0.003606
497.2739	0.001095
497.9423	0.004324
498.6109	0.003437
499.2795	0.002657
499.9482	0.000906
500.6171	0.004535
501.2860	0.002214
501.9551	0.002741
502.6242	0.002087
503.2935	0.002193
503.9628	0.004155
504.6323	0.003965
505.3019	0.001159
505.9716	0.002108
506.6414	0.002804
507.3113	0.001159
507.9813	0.002467
508.6514	0.002467
509.3216	0.002826
509.9919	0.003037
510.6623	0.002804
511.3329	0.001918
512.0035	0.002952
512.6742	0.003269
513.3451	0.002657
514.0160	0.001053
514.6871	0.002572
515.3582	0.001982
516.0295	0.002235
516.7008	0.002024
517.3723	0.002720
518.0439	0.002868
518.7155	0.001792
519.3873	0.001982
520.0592	0.002193
520.7312	0.001749
521.4033	0.003269
522.0755	0.002467
522.7478	0.003332
523.4202	0.003142
524.0927	0.003775
524.7653	0.002910
525.4380	0.001728
526.1108	0.002256
526.7837	0.004893
527.4568	0.004556
528.1299	0.002868
528.8031	0.003163
529.4765	0.004260
530.1499	0.003184
530.8234	0.003437
531.4971	0.004893
532.1708	0.004324
532.8447	0.005041
533.5186	0.007531
534.1927	0.006560
534.8668	0.006455
535.5411	0.008522
536.2155	0.005779
536.8899	0.006645
537.5645	0.006771
538.2392	0.006856
538.9139	0.007552
539.5888	0.008586
540.2638	0.009324
540.9389	0.007826
541.6140	0.010717
542.2893	0.010274
542.9647	0.011096
543.6402	0.011624
544.3158	0.011624
544.9915	0.013206
545.6673	0.011540
546.3432	0.013101
547.0192	0.011540
547.6953	0.015000
548.3715	0.016793
549.0478	0.015422
549.7242	0.015548
550.4007	0.015274
551.0773	0.014747
551.7540	0.015823
552.4308	0.018798
553.1077	0.020085
553.7847	0.019114
554.4618	0.020401
555.1390	0.019916
555.8163	0.021794
556.4937	0.022807
557.1712	0.022342
557.8488	0.021266
558.5266	0.021583
559.2044	0.022195
559.8823	0.023271
560.5603	0.026583
561.2384	0.031457
561.9166	0.030001
562.5949	0.028757
563.2733	0.030803
563.9519	0.030845
564.6305	0.032850
565.3092	0.034306
565.9880	0.033715
566.6669	0.037661
567.3459	0.044032
568.0250	0.046628
568.7043	0.056523
569.3836	0.063275
570.0630	0.086948
570.7425	0.090831
571.4221	0.105706
572.1018	0.120475
572.7816	0.101296
573.4615	0.118281
574.1415	0.136068
574.8216	0.148094
575.5018	0.147925
576.1821	0.134506
576.8626	0.155099
577.5431	0.162273
578.2237	0.205126
578.9044	0.167864
579.5851	0.168666
580.2660	0.181073
580.9470	0.170692
581.6281	0.272897
582.3093	0.258022
582.9906	0.204851
583.6720	0.163138
584.3535	0.165754
585.0351	0.190778
585.7167	0.197509
586.3985	0.169257
587.0804	0.179933
587.7624	0.190694
588.4445	0.169721
589.1266	0.146660
589.8089	0.133008
590.4913	0.127438
591.1737	0.106887
591.8563	0.111339
592.5389	0.130624
593.2217	0.172000
593.9046	0.162653
594.5875	0.141638
595.2705	0.165480
595.9537	0.143347
596.6369	0.124695
597.3203	0.122817
598.0037	0.119209
598.6872	0.130645
599.3709	0.152399
600.0546	0.151787
600.7384	0.153601
601.4223	0.149255
602.1064	0.141786
602.7905	0.145288
603.4747	0.159298
604.1590	0.144972
604.8434	0.128915
605.5279	0.138199
606.2125	0.146533
606.8972	0.129379
607.5819	0.134063
608.2668	0.127375
608.9518	0.116783
609.6369	0.110179
610.3220	0.124906
611.0073	0.115306
611.6927	0.113597
612.3781	0.109947
613.0637	0.108174
613.7493	0.105474
614.4351	0.105621
615.1209	0.106486
615.8068	0.112711
616.4929	0.093320
617.1790	0.091295
617.8652	0.094713
618.5515	0.082286
619.2379	0.075850
619.9244	0.081146
620.6110	0.083214
621.2977	0.062579
621.9845	0.068655
622.6714	0.072791
623.3584	0.076589
624.0454	0.074922
624.7326	0.075407
625.4199	0.072221
626.1072	0.065090
626.7947	0.057684
627.4822	0.058380
628.1698	0.052430
628.8576	0.049835
629.5454	0.054709
630.2333	0.051607
630.9213	0.044370
631.6094	0.044328
632.2976	0.043273
632.9859	0.038378
633.6743	0.039053
634.3628	0.036331
635.0514	0.033567
635.7400	0.035508
636.4288	0.038652
637.1177	0.037745
637.8066	0.034411
638.4957	0.034664
639.1848	0.035044
639.8740	0.032233
640.5633	0.032348
641.2528	0.029521
641.9423	0.027437
642.6319	0.024343
643.3216	0.024666
644.0113	0.024983
644.7012	0.022731
645.3912	0.023256
646.0812	0.022297
646.7714	0.020589
647.4616	0.021051
648.1520	0.026972
648.8424	0.024962
649.5329	0.028234
650.2236	0.025552
650.9143	0.024167
651.6051	0.024114
652.2960	0.026918
652.9870	0.025793
653.6780	0.027667
654.3692	0.030183
655.0605	0.048487
655.7518	0.807288
656.4433	1.000000
657.1348	0.730026
657.8264	0.447687
658.5181	0.334418
659.2099	0.241145
659.9018	0.057689
660.5938	0.022272
661.2859	0.018987
661.9781	0.016906
662.6704	0.019098
663.3627	0.017685
664.0552	0.017336
664.7477	0.018232
665.4403	0.021009
666.1330	0.019119
666.8259	0.017529
667.5188	0.016777
668.2117	0.016826
668.9048	0.020064
669.5980	0.018545
670.2913	0.018587
670.9846	0.018101
671.6781	0.025022
672.3716	0.029558
673.0652	0.027934
673.7589	0.023883
674.4527	0.024009
675.1466	0.021161
675.8406	0.021414
676.5347	0.021625
677.2288	0.020148
677.9231	0.023186
678.6174	0.027723
679.3119	0.027470
680.0064	0.028356
680.7010	0.030656
681.3957	0.030107
682.0905	0.026858
682.7854	0.027026
683.4803	0.027702
684.1754	0.029706
684.8705	0.033483
685.5658	0.037239
686.2611	0.036057
686.9565	0.037281
687.6520	0.036627
688.3476	0.034221
689.0433	0.030972
689.7390	0.030255
690.4349	0.027955
691.1308	0.030529
691.8269	0.031352
692.5230	0.032301
693.2192	0.034285
693.9155	0.030339
694.6119	0.026858
695.3083	0.030761
696.0049	0.025950
696.7016	0.030191
697.3983	0.032892
698.0951	0.031331
698.7920	0.031183
699.4890	0.029305
700.1861	0.028145
700.8833	0.026330
701.5806	0.023186
702.2779	0.024959
702.9753	0.024811
703.6729	0.022722
704.3705	0.022996
705.0682	0.022680
705.7660	0.021330
706.4638	0.026583
707.1618	0.031246
707.8599	0.031225
708.5580	0.031394
709.2562	0.027512
709.9545	0.027681
710.6529	0.028841
711.3514	0.026372
712.0500	0.025022
712.7486	0.024431
713.4474	0.025339
714.1462	0.029094
714.8451	0.030191
715.5441	0.028103
716.2432	0.026415
716.9424	0.025718
717.6416	0.022237
718.3410	0.024642
719.0404	0.024874
719.7399	0.023819
720.4395	0.023566
721.1392	0.025908
721.8390	0.024811
722.5388	0.023672
723.2388	0.023503
723.9388	0.023735
724.6389	0.023186
725.3391	0.027259
726.0394	0.029284
726.7398	0.025402
727.4403	0.027596
728.1408	0.027934
728.8414	0.027681
729.5421	0.029875
730.2429	0.030423
730.9438	0.035656
731.6448	0.036437
732.3458	0.034643
733.0470	0.037049
733.7482	0.036015
734.4495	0.042851
735.1509	0.039433
735.8524	0.041564
736.5539	0.039770
737.2556	0.040214
737.9573	0.035171
738.6591	0.032259
739.3610	0.037850
740.0630	0.036226
740.7651	0.033673
741.4672	0.029221
742.1695	0.028440
742.8718	0.029938
743.5742	0.026921
744.2767	0.023693
744.9792	0.023608
745.6819	0.022153
746.3846	0.023313
747.0874	0.025085
747.7903	0.026140
748.4933	0.024157
749.1964	0.025106
749.8995	0.029453
750.6028	0.031035
751.3061	0.031837
752.0095	0.035361
752.7130	0.031816
753.4166	0.032428
754.1202	0.036521
754.8239	0.032871
755.5278	0.035951
756.2317	0.037492
756.9356	0.042661
757.6397	0.052325
758.3438	0.047957
759.0481	0.044813
759.7524	0.049096
760.4568	0.054350
761.1613	0.054055
761.8658	0.044792
762.5705	0.041944
763.2752	0.041880
763.9800	0.043990
764.6849	0.049561
765.3898	0.048442
766.0949	0.044539
766.8000	0.035002
767.5052	0.033145
768.2105	0.035677
768.9159	0.040108
769.6214	0.039559
770.3269	0.034432
771.0325	0.039813
771.7382	0.038715
772.4440	0.033947
773.1499	0.034285
773.8558	0.031626
774.5618	0.026752
775.2679	0.026668
775.9741	0.021182
776.6804	0.023039
777.3868	0.020169
778.0932	0.020296
778.7997	0.026710
779.5063	0.025803
780.2130	0.024706
780.9197	0.024579
781.6265	0.030044
782.3335	0.028081
783.0405	0.028419
783.7475	0.031120
784.4547	0.026077
785.1619	0.022153
785.8692	0.024980
786.5766	0.024389
787.2841	0.022659
787.9917	0.025339
788.6993	0.026499
789.4070	0.024220
790.1148	0.022954
790.8227	0.021435
791.5306	0.021477
792.2387	0.020106
792.9468	0.016835
793.6550	0.019958
794.3632	0.026689
795.0716	0.027512
795.7800	0.021688
796.4885	0.020507
797.1971	0.016941
797.9058	0.019241
798.6145	0.017954
799.3233	0.018819
800.0322	0.017785
800.7412	0.016414
801.4503	0.015021
802.1594	0.013312
802.8686	0.012932
803.5779	0.016414
804.2873	0.014071
804.9968	0.013945
805.7063	0.013565
806.4159	0.019304
807.1256	0.018502
807.8354	0.019220
808.5452	0.019051
809.2551	0.017257
809.9651	0.017574
810.6752	0.015738
811.3853	0.015781
812.0956	0.014789
812.8059	0.010253
813.5163	0.012025
814.2267	0.014261
814.9373	0.014915
815.6479	0.013228
816.3586	0.010717
817.0694	0.011940
817.7802	0.011877
818.4912	0.012257
819.2022	0.010780
819.9133	0.008269
820.6244	0.011708
821.3357	0.012869
822.0470	0.010928
822.7584	0.011835
823.4698	0.009219
824.1814	0.008143
824.8930	0.007953
825.6047	0.011497
826.3165	0.009493
827.0283	0.011202
827.7402	0.009387
828.4522	0.010759
829.1643	0.011012
829.8765	0.010168
830.5887	0.007045
831.3010	0.007953
832.0134	0.005801
832.7259	0.006455
833.4384	0.008712
834.1510	0.008754
834.8637	0.008839
835.5765	0.009345
836.2893	0.008375
837.0022	0.004957
837.7152	0.005210
838.4283	0.006834
839.1414	0.005379
839.8546	0.006813
840.5679	0.004914
841.2813	0.006201
841.9947	0.004746
842.7082	0.004303
843.4218	0.003902
844.1355	0.004303
844.8492	0.004303
845.5631	0.006244
846.2770	0.003754
846.9909	0.003775
847.7050	0.003501
848.4191	0.004767
849.1333	0.002847
849.8475	0.003817
850.5619	0.002256
851.2763	0.004598
851.9908	0.002994
852.7053	0.007045
853.4200	0.011455
854.1347	0.013291
854.8495	0.011540
855.5643	0.011518
856.2792	0.011687
856.9942	0.009282
857.7093	0.008480
858.4245	0.008396
859.1397	0.007045
859.8550	0.009219
860.5704	0.005927
861.2858	0.006138
862.0013	0.004429
862.7169	0.004303
863.4326	0.004914
864.1483	0.005906
864.8642	0.006159
865.5800	0.003965
866.2960	0.003459
867.0120	0.004872
867.7281	0.005062
868.4443	0.005168
869.1606	0.004387
869.8769	0.002319
870.5933	0.004767
871.3097	0.005146
872.0263	0.003902
872.7429	0.004007
873.4596	0.003965
874.1763	0.004703
874.8932	0.005864
875.6101	0.005442
876.3270	0.004978
877.0441	0.005927
877.7612	0.005231
878.4784	0.003817
879.1957	0.006750
879.9130	0.006455
880.6304	0.005822
881.3479	0.006982
882.0654	0.005758
882.7831	0.004872
883.5007	0.006286
884.2185	0.004471
884.9363	0.005252
885.6542	0.005843
886.3722	0.004598
887.0903	0.005632
887.8084	0.003564
888.5266	0.004155
889.2448	0.002404
889.9632	0.001728
890.6816	0.003416
891.4001	0.003712
892.1186	0.004640
892.8372	0.004239
893.5559	0.003691
894.2747	0.003163
894.9935	0.003606
895.7124	0.004092
896.4314	0.004746
897.1504	0.002657
897.8695	0.003902
898.5887	0.003100
899.3079	0.004366
900.0272	0.003754
900.7466	0.004028
901.4661	0.002910
902.1856	0.003859
902.9052	0.004535
903.6249	0.003121
904.3446	0.003480
905.0644	0.004218
905.7843	0.004197
906.5043	0.004007
907.2243	0.002741
907.9444	0.003543
908.6645	0.003353
909.3847	0.001433
910.1050	0.002108
910.8254	0.002593
911.5458	0.003459
912.2663	0.003037
912.9869	0.003226
913.7075	0.002150
914.4283	0.003437
915.1490	0.002826
915.8699	0.002467
916.5908	0.003543
917.3118	0.002129
918.0328	0.003163
918.7539	0.004155
919.4751	0.003248
920.1964	0.002066
920.9177	0.003100
921.6391	0.001707
922.3606	0.003522
923.0821	0.002171
923.8037	0.003079
924.5254	0.001074
925.2471	0.002382
925.9689	0.002488
926.6908	0.002783
927.4127	0.001560
928.1347	0.001602
928.8568	0.002235
929.5789	0.002868
930.3011	0.001792
931.0234	0.001728
931.7457	0.000589
932.4681	0.002235
933.1906	0.000863
933.9131	0.002530
934.6358	0.001623
935.3584	0.001918
936.0812	0.001728
936.8040	0.001560
937.5269	0.001011
938.2498	0.000842
938.9728	0.002678
939.6959	0.002657
940.4190	0.001306
941.1422	0.000610
941.8655	0.000863
942.5889	0.000863
943.3123	0.001728
944.0357	0.000673
944.7593	0.001538
945.4829	-0.001078
946.2066	0.002150
946.9303	0.000273
947.6541	-0.000508
948.3780	-0.000656
949.1019	0.002193
949.8259	0.000357
950.5500	0.000420
951.2741	0.000526
951.9983	0.001264
952.7226	0.001771
953.4469	0.001623
954.1713	0.000863
954.8958	0.000948
955.6203	0.000695
956.3449	0.002319
957.0696	0.001264
957.7943	0.000758
958.5191	0.000399
959.2439	0.000399
959.9688	0.001496
960.6938	0.001053
961.4189	-0.000002
962.1440	0.002699
962.8692	0.000547
963.5944	-0.000909
964.3197	-0.000508
965.0451	0.000695
965.7705	0.000040
966.4960	0.000083
967.2216	0.000188
967.9472	0.001517
968.6729	0.000526
969.3987	0.001538
970.1245	-0.000403
970.8504	0.000610
971.5763	0.000420
972.3023	0.000673
973.0284	-0.000529
973.7545	0.000420
974.4807	0.000821
975.2070	0.001433
975.9333	0.000336
976.6597	0.000673
977.3862	-0.000571
978.1127	-0.000487
978.8393	0.000969
979.5659	0.000399
980.2926	0.000336
981.0194	0.000990
981.7462	-0.000445
982.4731	0.000420
983.2001	-0.000445
983.9271	0.001538
984.6542	0.000294
985.3814	-0.000255
986.1086	0.000083
986.8358	0.000673
987.5632	-0.000487
988.2906	0.000399
989.0180	0.000906
989.7456	-0.000023
990.4732	0.000336
991.2008	0.000188
991.9285	-0.000192
992.6563	0.000083
993.3841	-0.000740
994.1120	-0.000698
994.8400	0.000336
995.5680	0.000673
996.2961	0.001117
997.0242	0.000146
997.7524	-0.000529
998.4807	-0.000466
999.2090	-0.002280
999.9374	-0.000846
1000.67	0.000800
1001.39	0.000695
1002.12	0.000800
1002.85	-0.000719
1003.58	-0.000571
1004.31	0.000484
1005.04	0.001180
1005.77	-0.002006
1006.5	0.000019
1007.22	-0.001289
1007.95	0.000104
1008.68	-0.000825
1009.41	-0.000044
1010.14	0.000315
1010.87	-0.000614
1011.6	0.000462
1012.33	0.000062
1013.06	-0.000846
1013.79	0.000842
1014.52	0.001138
1015.25	-0.001120
1015.98	-0.001162
1016.71	-0.000044
1017.44	0.000167
1018.17	0.000251
1018.9	-0.000888
1019.63	-0.000002
1020.36	0.001391
1021.09	0.000209
1021.82	-0.000719
1022.55	-0.000445
1023.03	0.000990