File: Auto_Polymerization/Data/UV_VIS_Spectra/MRG-061-F5_spectra_while_stopped_with_alu_foil/spectrum_2025-06-20_10-13-10.txt
# Wavelength (nm)	Intensity (a.u.)
197.7802	0.000684
198.3922	0.000135
199.0044	-0.001025
199.6168	-0.000329
200.2292	0.001549
200.8418	0.000114
201.4546	-0.001700
202.0674	-0.000413
202.6805	0.000114
203.2936	0.001127
203.9069	0.000578
204.5203	-0.000012
205.1338	-0.000413
205.7475	-0.000181
206.3614	0.000578
206.9753	0.000557
207.5894	0.001127
208.2036	0.000789
208.8180	0.000304
209.4325	-0.000076
210.0471	0.001338
210.6618	-0.000645
211.2767	0.000515
211.8918	-0.000118
212.5069	0.000346
213.1222	0.000811
213.7376	0.000726
214.3532	-0.000371
214.9689	0.002351
215.5847	0.000642
216.2007	0.000979
216.8168	0.000220
217.4330	0.000726
218.0494	-0.000666
218.6659	-0.000181
219.2825	-0.000118
219.8992	-0.000814
220.5161	0.000557
221.1332	0.001021
221.7503	-0.000371
222.3676	0.000367
222.9850	-0.000329
223.6026	0.000220
224.2203	-0.000160
224.8381	0.000389
225.4561	-0.000898
226.0742	0.000093
226.6924	-0.000476
227.3107	0.000114
227.9292	-0.000055
228.5478	0.000726
229.1666	0.000452
229.7855	0.000241
230.4045	-0.000540
231.0236	0.000325
231.6429	0.001043
232.2623	-0.000139
232.8818	0.001612
233.5015	0.000051
234.1213	0.000642
234.7413	-0.000476
235.3613	-0.000160
235.9815	0.000114
236.6018	0.000642
237.2223	-0.000202
237.8429	-0.000139
238.4636	0.001802
239.0845	-0.000371
239.7055	0.000874
240.3266	0.000473
240.9478	0.000642
241.5692	-0.000287
242.1907	0.000536
242.8124	0.000325
243.4341	-0.000962
244.0560	0.000304
244.6781	-0.000244
245.3002	0.000283
245.9225	0.000325
246.5449	0.000389
247.1675	0.000072
247.7902	-0.000244
248.4130	0.000578
249.0359	-0.000139
249.6590	-0.000118
250.2822	0.000241
250.9056	0.000642
251.5290	0.000431
252.1526	0.000030
252.7763	0.000832
253.4002	0.000346
254.0242	0.001465
254.6483	0.000705
255.2725	0.000663
255.8969	-0.000223
256.5214	0.000642
257.1460	0.000199
257.7708	0.001486
258.3957	0.001000
259.0207	-0.000012
259.6459	0.000325
260.2711	-0.000308
260.8965	0.001549
261.5221	-0.000666
262.1477	0.000663
262.7735	0.000199
263.3995	0.001211
264.0255	-0.000329
264.6517	-0.000265
265.2780	0.000916
265.9044	0.000473
266.5310	-0.000223
267.1577	0.000578
267.7845	0.001064
268.4114	-0.000687
269.0385	0.000199
269.6657	0.001148
270.2931	0.000452
270.9205	-0.000814
271.5481	0.000220
272.1758	0.000199
272.8037	0.000789
273.4316	-0.000751
274.0597	-0.000962
274.6880	0.000241
275.3163	-0.000202
275.9448	0.000304
276.5734	0.000135
277.2022	0.000979
277.8310	0.001443
278.4600	0.000220
279.0891	-0.000265
279.7184	-0.000076
280.3477	0.000642
280.9772	0.001401
281.6069	0.000979
282.2366	-0.000265
282.8665	0.000367
283.4965	-0.001405
284.1266	-0.000033
284.7569	0.000874
285.3873	0.000663
286.0178	0.000410
286.6484	-0.000265
287.2792	-0.000139
287.9101	-0.000540
288.5411	0.000705
289.1723	-0.000055
289.8035	0.000410
290.4349	-0.000350
291.0665	0.000789
291.6981	0.000030
292.3299	0.000642
292.9618	0.000325
293.5938	-0.000476
294.2260	-0.000055
294.8582	-0.000582
295.4906	-0.002080
296.1232	0.000304
296.7558	0.000283
297.3886	-0.000561
298.0215	-0.000624
298.6545	0.001317
299.2877	-0.001067
299.9210	0.000473
300.5544	-0.000202
301.1879	-0.000139
301.8215	-0.000603
302.4553	0.001190
303.0892	-0.000181
303.7233	-0.000434
304.3574	-0.000730
304.9917	0.001085
305.6261	0.000135
306.2606	-0.000624
306.8953	0.000199
307.5301	0.000811
308.1650	0.001085
308.8000	-0.000645
309.4351	-0.000181
310.0704	0.000536
310.7058	0.000473
311.3413	0.000431
311.9770	0.000789
312.6127	0.002055
313.2486	0.000494
313.8846	0.000220
314.5208	-0.000350
315.1570	0.001127
315.7934	-0.000181
316.4299	0.000895
317.0666	0.000747
317.7033	-0.000118
318.3402	0.000515
318.9772	-0.000012
319.6143	-0.000498
320.2516	0.000937
320.8890	-0.000540
321.5265	0.000325
322.1641	0.001401
322.8018	0.000114
323.4397	-0.000793
324.0777	0.000916
324.7158	-0.000413
325.3540	0.000410
325.9924	0.001000
326.6308	0.001254
327.2694	0.000431
327.9082	-0.000055
328.5470	-0.001130
329.1860	0.000557
329.8251	-0.000413
330.4643	0.000410
331.1036	-0.001173
331.7431	0.001739
332.3826	0.000178
333.0223	0.002076
333.6622	0.000030
334.3021	0.000030
334.9422	-0.001574
335.5823	0.001338
336.2227	-0.000498
336.8631	-0.000434
337.5036	-0.000329
338.1443	0.000916
338.7851	-0.000941
339.4260	-0.000709
340.0670	-0.001763
340.7082	0.000874
341.3495	-0.000350
341.9909	-0.000498
342.6324	-0.000181
343.2740	0.000494
343.9158	-0.000223
344.5577	0.000072
345.1997	0.000789
345.8418	0.000072
346.4840	0.000030
347.1264	-0.000139
347.7689	-0.000540
348.4115	0.000114
349.0542	0.000220
349.6971	-0.000265
350.3400	0.000346
350.9831	0.001127
351.6263	0.000389
352.2696	-0.000139
352.9131	0.001190
353.5566	0.000325
354.2003	0.000747
354.8441	0.000811
355.4881	-0.000223
356.1321	0.000958
356.7763	-0.000118
357.4206	0.000811
358.0650	0.000389
358.7095	-0.000413
359.3541	0.000367
359.9989	-0.001046
360.6438	-0.000434
361.2888	-0.000645
361.9339	0.000684
362.5791	0.000135
363.2245	-0.000139
363.8699	0.001064
364.5155	0.000114
365.1612	0.000515
365.8071	0.000621
366.4530	0.000389
367.0991	-0.000561
367.7453	0.000220
368.3916	0.000663
369.0380	0.000515
369.6845	-0.001130
370.3312	0.001676
370.9780	0.000578
371.6249	0.000199
372.2719	-0.000308
372.9190	-0.000181
373.5663	-0.000118
374.2136	0.000811
374.8611	0.001254
375.5087	0.001697
376.1564	-0.000877
376.8043	-0.000561
377.4522	-0.000139
378.1003	0.000473
378.7485	-0.000624
379.3968	-0.000561
380.0452	0.000578
380.6938	0.000051
381.3424	0.000642
381.9912	0.001106
382.6401	-0.000476
383.2891	0.001338
383.9382	0.000346
384.5875	0.001064
385.2368	-0.000097
385.8863	0.000515
386.5359	0.000325
387.1856	0.001422
387.8355	0.000768
388.4854	0.001992
389.1355	0.000726
389.7856	0.001338
390.4359	0.000937
391.0863	0.001127
391.7369	0.000114
392.3875	0.002182
393.0383	0.002393
393.6891	0.001401
394.3401	0.001844
394.9912	0.001992
395.6425	0.001697
396.2938	0.002330
396.9453	0.002076
397.5968	0.002414
398.2485	0.001591
398.9003	0.003996
399.5522	0.003110
400.2043	0.002941
400.8564	0.004271
401.5087	0.005325
402.1610	0.005979
402.8135	0.004397
403.4661	0.005093
404.1189	0.005958
404.7717	0.004946
405.4246	0.005093
406.0777	0.007077
406.7309	0.006022
407.3842	0.004967
408.0376	0.004397
408.6911	0.008258
409.3448	0.007498
409.9985	0.006233
410.6524	0.005768
411.3064	0.007456
411.9605	0.007498
412.6147	0.009925
413.2690	0.009777
413.9234	0.009566
414.5780	0.008912
415.2326	0.008364
415.8874	0.008553
416.5423	0.008933
417.1973	0.010136
417.8524	0.011444
418.5077	0.012541
419.1630	0.010832
419.8185	0.011106
420.4741	0.012245
421.1298	0.012921
421.7856	0.014967
422.4415	0.013976
423.0975	0.015157
423.7536	0.015094
424.4099	0.015368
425.0663	0.013891
425.7228	0.015895
426.3793	0.015178
427.0361	0.012942
427.6929	0.014862
428.3498	0.014735
429.0068	0.015600
429.6640	0.017499
430.3213	0.019524
430.9787	0.019777
431.6362	0.016338
432.2938	0.016064
432.9515	0.014714
433.6093	0.017794
434.2673	0.017140
434.9253	0.016718
435.5835	0.016381
436.2418	0.018322
436.9001	0.018174
437.5586	0.018301
438.2173	0.016824
438.8760	0.017921
439.5348	0.017857
440.1938	0.016423
440.8528	0.016992
441.5120	0.020516
442.1713	0.022309
442.8307	0.020242
443.4902	0.019883
444.1498	0.021191
444.8095	0.017879
445.4694	0.018596
446.1293	0.018828
446.7894	0.018701
447.4496	0.018891
448.1098	0.018891
448.7702	0.018533
449.4307	0.019187
450.0914	0.017330
450.7521	0.019503
451.4129	0.015938
452.0739	0.017836
452.7349	0.016360
453.3961	0.016233
454.0574	0.014060
454.7188	0.014693
455.3803	0.015558
456.0419	0.014271
456.7036	0.013765
457.3654	0.014440
458.0274	0.014039
458.6894	0.014693
459.3516	0.013786
460.0138	0.016233
460.6762	0.012942
461.3387	0.013132
462.0013	0.011254
462.6640	0.010874
463.3268	0.011359
463.9897	0.013047
464.6528	0.013701
465.3159	0.010157
465.9792	0.011338
466.6425	0.010452
467.3060	0.009418
467.9696	0.008553
468.6333	0.009566
469.2970	0.007878
469.9610	0.006844
470.6250	0.008743
471.2891	0.007646
471.9533	0.007013
472.6177	0.008131
473.2821	0.007667
473.9467	0.007330
474.6113	0.005832
475.2761	0.007393
475.9410	0.005515
476.6060	0.008828
477.2711	0.005347
477.9363	0.005136
478.6016	0.004925
479.2670	0.006296
479.9325	0.005557
480.5982	0.005473
481.2639	0.005283
481.9298	0.006106
482.5957	0.006043
483.2618	0.003827
483.9280	0.004123
484.5943	0.005557
485.2606	0.006739
485.9271	0.016233
486.5937	0.010262
487.2605	0.007372
487.9273	0.002962
488.5942	0.004629
489.2612	0.003849
489.9284	0.003891
490.5956	0.002730
491.2630	0.003321
491.9304	0.003026
492.5980	0.002372
493.2657	0.001802
493.9334	0.003722
494.6013	0.005642
495.2693	0.003448
495.9374	0.003406
496.6056	0.003342
497.2739	0.003384
497.9423	0.002730
498.6109	0.001971
499.2795	0.003891
499.9482	0.003722
500.6171	0.003026
501.2860	0.002393
501.9551	0.002751
502.6242	0.002435
503.2935	0.002435
503.9628	0.000178
504.6323	0.003047
505.3019	0.002076
505.9716	0.003110
506.6414	0.002773
507.3113	0.002203
507.9813	0.002055
508.6514	0.003195
509.3216	0.000895
509.9919	0.002330
510.6623	0.001127
511.3329	0.002604
512.0035	0.001886
512.6742	0.002330
513.3451	0.001802
514.0160	0.000389
514.6871	0.002119
515.3582	0.002034
516.0295	0.001697
516.7008	0.002941
517.3723	0.002962
518.0439	0.003996
518.7155	0.001296
519.3873	0.002372
520.0592	0.001950
520.7312	0.001760
521.4033	0.003954
522.0755	0.002836
522.7478	0.000958
523.4202	0.002899
524.0927	0.003532
524.7653	0.001697
525.4380	0.003047
526.1108	0.002984
526.7837	0.003131
527.4568	0.002266
528.1299	0.003342
528.8031	0.004144
529.4765	0.004566
530.1499	0.004482
530.8234	0.004313
531.4971	0.005642
532.1708	0.004756
532.8447	0.004946
533.5186	0.005557
534.1927	0.006064
534.8668	0.005853
535.5411	0.005410
536.2155	0.007477
536.8899	0.005199
537.5645	0.006169
538.2392	0.007583
538.9139	0.008258
539.5888	0.007435
540.2638	0.008364
540.9389	0.007477
541.6140	0.007963
542.2893	0.010072
542.9647	0.009313
543.6402	0.009608
544.3158	0.011043
544.9915	0.011043
545.6673	0.010874
546.3432	0.010937
547.0192	0.012267
547.6953	0.015663
548.3715	0.014587
549.0478	0.013195
549.7242	0.013005
550.4007	0.012119
551.0773	0.015220
551.7540	0.014250
552.4308	0.017309
553.1077	0.017689
553.7847	0.019208
554.4618	0.018891
555.1390	0.018744
555.8163	0.018933
556.4937	0.021550
557.1712	0.018596
557.8488	0.019925
558.5266	0.019566
559.2044	0.020917
559.8823	0.021929
560.5603	0.023934
561.2384	0.025959
561.9166	0.026740
562.5949	0.025242
563.2733	0.027119
563.9519	0.027773
564.6305	0.030769
565.3092	0.032942
565.9880	0.031466
566.6669	0.034968
567.3459	0.039989
568.0250	0.044314
568.7043	0.050053
569.3836	0.058175
570.0630	0.078535
570.7425	0.082691
571.4221	0.096236
572.1018	0.104316
572.7816	0.095371
573.4615	0.109211
574.1415	0.125435
574.8216	0.135942
575.5018	0.136364
576.1821	0.123220
576.8626	0.139613
577.5431	0.153537
578.2237	0.188201
578.9044	0.153453
579.5851	0.157736
580.2660	0.161639
580.9470	0.160225
581.6281	0.253308
582.3093	0.239764
582.9906	0.182968
583.6720	0.149676
584.3535	0.150035
585.0351	0.174382
585.7167	0.188686
586.3985	0.160457
587.0804	0.168495
587.7624	0.173812
588.4445	0.160647
589.1266	0.141786
589.8089	0.129148
590.4913	0.117186
591.1737	0.107818
591.8563	0.104633
592.5389	0.120857
593.2217	0.159170
593.9046	0.151807
594.5875	0.134380
595.2705	0.152757
595.9537	0.135520
596.6369	0.113937
597.3203	0.120287
598.0037	0.115181
598.6872	0.123452
599.3709	0.144339
600.0546	0.144634
600.7384	0.141828
601.4223	0.143748
602.1064	0.131258
602.7905	0.135245
603.4747	0.150119
604.1590	0.138579
604.8434	0.124697
605.5279	0.132186
606.2125	0.138832
606.8972	0.124528
607.5819	0.129676
608.2668	0.119633
608.9518	0.110118
609.6369	0.105350
610.3220	0.122249
611.0073	0.109801
611.6927	0.111658
612.3781	0.106004
613.0637	0.105392
613.7493	0.102312
614.4351	0.100033
615.1209	0.100582
615.8068	0.104527
616.4929	0.092965
617.1790	0.085539
617.8652	0.088915
618.5515	0.080919
619.2379	0.071868
619.9244	0.074210
620.6110	0.078514
621.2977	0.059715
621.9845	0.065538
622.6714	0.068218
623.3584	0.070750
624.0454	0.069885
624.7326	0.076425
625.4199	0.067669
626.1072	0.063956
626.7947	0.053871
627.4822	0.059800
628.1698	0.053112
628.8576	0.047015
629.5454	0.051867
630.2333	0.048217
630.9213	0.047458
631.6094	0.045158
632.2976	0.040538
632.9859	0.036234
633.6743	0.035938
634.3628	0.035432
635.0514	0.032478
635.7400	0.032309
636.4288	0.036782
637.1177	0.034757
637.8066	0.036044
638.4957	0.035580
639.1848	0.032774
639.8740	0.031370
640.5633	0.028103
641.2528	0.028029
641.9423	0.026195
642.6319	0.023214
643.3216	0.024395
644.0113	0.025411
644.7012	0.021380
645.3912	0.022348
646.0812	0.022440
646.7714	0.021043
647.4616	0.019330
648.1520	0.023228
648.8424	0.026540
649.5329	0.027194
650.2236	0.026023
650.9143	0.023475
651.6051	0.024800
652.2960	0.026525
652.9870	0.027634
653.6780	0.026882
654.3692	0.030678
655.0605	0.048964
655.7518	0.783243
656.4433	1.000000
657.1348	0.697746
657.8264	0.424148
658.5181	0.321464
659.2099	0.232049
659.9018	0.059704
660.5938	0.023840
661.2859	0.019038
661.9781	0.018122
662.6704	0.019171
663.3627	0.017357
664.0552	0.017789
664.7477	0.019206
665.4403	0.019914
666.1330	0.020870
666.8259	0.017369
667.5188	0.018831
668.2117	0.017463
668.9048	0.019039
669.5980	0.018343
670.2913	0.019651
670.9846	0.018385
671.6781	0.022583
672.3716	0.026887
673.0652	0.028512
673.7589	0.025094
674.4527	0.022161
675.1466	0.021761
675.8406	0.021486
676.5347	0.020178
677.2288	0.019798
677.9231	0.025685
678.6174	0.024778
679.3119	0.026191
680.0064	0.029693
680.7010	0.027077
681.3957	0.031191
682.0905	0.027752
682.7854	0.024419
683.4803	0.025221
684.1754	0.028322
684.8705	0.030115
685.5658	0.036571
686.2611	0.037478
686.9565	0.034525
687.6520	0.034630
688.3476	0.032731
689.0433	0.029883
689.7390	0.028617
690.4349	0.028216
691.1308	0.029714
691.8269	0.030558
692.5230	0.031698
693.2192	0.032963
693.9155	0.029736
694.6119	0.026951
695.3083	0.028976
696.0049	0.022752
696.7016	0.031128
697.3983	0.031993
698.0951	0.033723
698.7920	0.030305
699.4890	0.028449
700.1861	0.025643
700.8833	0.025157
701.5806	0.023385
702.2779	0.024102
702.9753	0.025010
703.6729	0.022858
704.3705	0.021571
705.0682	0.020896
705.7660	0.020410
706.4638	0.024630
707.1618	0.030812
707.8599	0.029609
708.5580	0.031529
709.2562	0.028913
709.9545	0.028786
710.6529	0.029018
711.3514	0.026254
712.0500	0.023069
712.7486	0.025178
713.4474	0.027541
714.1462	0.029356
714.8451	0.028470
715.5441	0.029208
716.2432	0.024778
716.9424	0.021993
717.6416	0.021929
718.3410	0.024799
719.0404	0.024271
719.7399	0.023807
720.4395	0.020558
721.1392	0.026191
721.8390	0.023934
722.5388	0.023132
723.2388	0.021550
723.9388	0.023132
724.6389	0.022963
725.3391	0.024609
726.0394	0.027373
726.7398	0.029736
727.4403	0.025790
728.1408	0.027119
728.8414	0.028997
729.5421	0.028807
730.2429	0.027984
730.9438	0.035242
731.6448	0.034841
732.3458	0.034440
733.0470	0.037457
733.7482	0.037605
734.4495	0.042732
735.1509	0.040348
735.8524	0.038744
736.5539	0.039356
737.2556	0.039208
737.9573	0.036360
738.6591	0.033955
739.3610	0.037858
740.0630	0.034989
740.7651	0.031191
741.4672	0.029103
742.1695	0.028828
742.8718	0.026887
743.5742	0.025579
744.2767	0.026655
744.9792	0.025664
745.6819	0.023533
746.3846	0.024229
747.0874	0.023976
747.7903	0.025938
748.4933	0.023364
749.1964	0.026803
749.8995	0.030579
750.6028	0.033807
751.3061	0.032415
752.0095	0.032246
752.7130	0.031698
753.4166	0.031550
754.1202	0.033343
754.8239	0.031655
755.5278	0.036529
756.2317	0.036634
756.9356	0.041424
757.6397	0.047669
758.3438	0.047183
759.0481	0.042816
759.7524	0.049947
760.4568	0.051044
761.1613	0.050960
761.8658	0.042753
762.5705	0.039862
763.2752	0.040221
763.9800	0.040369
764.6849	0.044989
765.3898	0.047795
766.0949	0.042120
766.8000	0.033554
767.5052	0.031698
768.2105	0.036191
768.9159	0.040622
769.6214	0.036972
770.3269	0.037331
771.0325	0.038449
771.7382	0.038301
772.4440	0.033533
773.1499	0.033976
773.8558	0.030221
774.5618	0.026719
775.2679	0.024166
775.9741	0.023554
776.6804	0.020474
777.3868	0.020368
778.0932	0.021149
778.7997	0.024756
779.5063	0.027647
780.2130	0.023913
780.9197	0.027541
781.6265	0.028343
782.3335	0.030706
783.0405	0.027921
783.7475	0.027858
784.4547	0.025178
785.1619	0.024334
785.8692	0.024904
786.5766	0.022942
787.2841	0.022647
787.9917	0.023659
788.6993	0.025115
789.4070	0.024567
790.1148	0.021972
790.8227	0.020917
791.5306	0.018744
792.2387	0.019566
792.9468	0.015832
793.6550	0.019904
794.3632	0.026571
795.0716	0.027077
795.7800	0.025073
796.4885	0.020474
797.1971	0.018385
797.9058	0.020410
798.6145	0.018364
799.3233	0.018976
800.0322	0.016127
800.7412	0.016170
801.4503	0.016085
802.1594	0.013490
802.8686	0.013933
803.5779	0.015874
804.2873	0.014566
804.9968	0.014376
805.7063	0.013997
806.4159	0.019102
807.1256	0.019820
807.8354	0.016950
808.5452	0.017815
809.2551	0.019440
809.9651	0.015579
810.6752	0.014904
811.3853	0.014819
812.0956	0.014862
812.8059	0.014376
813.5163	0.013575
814.2267	0.015009
814.9373	0.014039
815.6479	0.012963
816.3586	0.011824
817.0694	0.012035
817.7802	0.011950
818.4912	0.013237
819.2022	0.010410
819.9133	0.008849
820.6244	0.012245
821.3357	0.012203
822.0470	0.010326
822.7584	0.011634
823.4698	0.007984
824.1814	0.009250
824.8930	0.008828
825.6047	0.011760
826.3165	0.010895
827.0283	0.009650
827.7402	0.011423
828.4522	0.009566
829.1643	0.009545
829.8765	0.010494
830.5887	0.008996
831.3010	0.007625
832.0134	0.006591
832.7259	0.006317
833.4384	0.008153
834.1510	0.008807
834.8637	0.007688
835.5765	0.008912
836.2893	0.008722
837.0022	0.007731
837.7152	0.006444
838.4283	0.004988
839.1414	0.006148
839.8546	0.006570
840.5679	0.005536
841.2813	0.005853
841.9947	0.004123
842.7082	0.003975
843.4218	0.004418
844.1355	0.005515
844.8492	0.004207
845.5631	0.005220
846.2770	0.004081
846.9909	0.004925
847.7050	0.005283
848.4191	0.004439
849.1333	0.004060
849.8475	0.004038
850.5619	0.002920
851.2763	0.005452
851.9908	0.005178
852.7053	0.006844
853.4200	0.010705
854.1347	0.012140
854.8495	0.011802
855.5643	0.008849
856.2792	0.009629
856.9942	0.010072
857.7093	0.008469
858.4245	0.008174
859.1397	0.007055
859.8550	0.007034
860.5704	0.007224
861.2858	0.005621
862.0013	0.005072
862.7169	0.005494
863.4326	0.005958
864.1483	0.005178
864.8642	0.003722
865.5800	0.004292
866.2960	0.003574
867.0120	0.003553
867.7281	0.003173
868.4443	0.005072
869.1606	0.002224
869.8769	0.003891
870.5933	0.004503
871.3097	0.005389
872.0263	0.003384
872.7429	0.004482
873.4596	0.004207
874.1763	0.004587
874.8932	0.004988
875.6101	0.005557
876.3270	0.003595
877.0441	0.003870
877.7612	0.005557
878.4784	0.004292
879.1957	0.006591
879.9130	0.008047
880.6304	0.007330
881.3479	0.006001
882.0654	0.006676
882.7831	0.005642
883.5007	0.006317
884.2185	0.004967
884.9363	0.005347
885.6542	0.006233
886.3722	0.004692
887.0903	0.004692
887.8084	0.004249
888.5266	0.004460
889.2448	0.005220
889.9632	0.003827
890.6816	0.003258
891.4001	0.002604
892.1186	0.003996
892.8372	0.005768
893.5559	0.003574
894.2747	0.002646
894.9935	0.003005
895.7124	0.002562
896.4314	0.004439
897.1504	0.003300
897.8695	0.002456
898.5887	0.005157
899.3079	0.003827
900.0272	0.003638
900.7466	0.004165
901.4661	0.005051
902.1856	0.004376
902.9052	0.003659
903.6249	0.003216
904.3446	0.004692
905.0644	0.004249
905.7843	0.003384
906.5043	0.003279
907.2243	0.003827
907.9444	0.005262
908.6645	0.003954
909.3847	0.003891
910.1050	0.001654
910.8254	0.001401
911.5458	0.003152
912.2663	0.003785
912.9869	0.003891
913.7075	0.002836
914.4283	0.002393
915.1490	0.003089
915.8699	0.003173
916.5908	0.002498
917.3118	0.002245
918.0328	0.004186
918.7539	0.003638
919.4751	0.003237
920.1964	0.003216
920.9177	0.002583
921.6391	0.001085
922.3606	0.001760
923.0821	0.003342
923.8037	0.003131
924.5254	0.003996
925.2471	0.003722
925.9689	0.001359
926.6908	0.003110
927.4127	0.001148
928.1347	0.001254
928.8568	0.001106
929.5789	0.001633
930.3011	0.000494
931.0234	0.002604
931.7457	0.002456
932.4681	0.001232
933.1906	0.002688
933.9131	0.002604
934.6358	0.001886
935.3584	0.001507
936.0812	0.001781
936.8040	0.000811
937.5269	0.001971
938.2498	0.001422
938.9728	0.002182
939.6959	0.001570
940.4190	0.002456
941.1422	0.000747
941.8655	0.000093
942.5889	0.000114
943.3123	0.000874
944.0357	0.000557
944.7593	0.000958
945.4829	0.000051
946.2066	0.001676
946.9303	0.000811
947.6541	0.000895
948.3780	0.001254
949.1019	0.002055
949.8259	0.000178
950.5500	0.001718
951.2741	0.002646
951.9983	0.001232
952.7226	0.001422
953.4469	0.001232
954.1713	0.001211
954.8958	0.001886
955.6203	0.000135
956.3449	0.001844
957.0696	0.000473
957.7943	0.000768
958.5191	-0.000540
959.2439	0.000705
959.9688	0.000916
960.6938	0.000789
961.4189	-0.000329
962.1440	0.000473
962.8692	0.001338
963.5944	0.000642
964.3197	0.001338
965.0451	0.000747
965.7705	-0.000265
966.4960	0.000346
967.2216	0.000283
967.9472	-0.000603
968.6729	0.000874
969.3987	0.000325
970.1245	0.001085
970.8504	-0.000012
971.5763	0.000853
972.3023	0.000220
973.0284	0.001507
973.7545	0.000663
974.4807	0.000093
975.2070	0.000114
975.9333	0.000832
976.6597	0.000515
977.3862	-0.000898
978.1127	0.001127
978.8393	0.000494
979.5659	0.000578
980.2926	-0.000033
981.0194	0.000030
981.7462	0.000114
982.4731	0.000410
983.2001	0.000093
983.9271	0.000515
984.6542	0.000473
985.3814	-0.000160
986.1086	0.000747
986.8358	0.000030
987.5632	-0.000076
988.2906	0.000304
989.0180	0.000578
989.7456	-0.000856
990.4732	0.000389
991.2008	0.001085
991.9285	-0.000308
992.6563	0.000452
993.3841	0.000979
994.1120	0.001021
994.8400	0.000431
995.5680	0.000789
996.2961	-0.000181
997.0242	-0.000244
997.7524	0.000030
998.4807	0.001232
999.2090	0.000178
999.9374	-0.000097
1000.67	-0.000308
1001.39	0.001422
1002.12	0.001211
1002.85	-0.000603
1003.58	0.000093
1004.31	0.000220
1005.04	0.000789
1005.77	0.000178
1006.5	-0.000624
1007.22	0.000811
1007.95	0.000895
1008.68	-0.000434
1009.41	0.000895
1010.14	0.000494
1010.87	0.001106
1011.6	-0.000055
1012.33	0.001296
1013.06	-0.001109
1013.79	0.000199
1014.52	-0.000455
1015.25	0.002203
1015.98	0.001359
1016.71	0.000199
1017.44	0.000832
1018.17	0.001654
1018.9	-0.001447
1019.63	0.001781
1020.36	0.000789
1021.09	0.000030
1021.82	-0.002164
1022.55	-0.000076
1023.03	0.001169