File: Auto_Polymerization/Data/UV_VIS_Spectra/MRG-061-F5_spectra_while_stopped_with_alu_foil/spectrum_2025-06-20_09-06-40_absorbance.txt
# Wavelength	Absorbance
197.78 -0.029427
198.392 0.071485
199.004 2.918555
199.617 2.768638
200.229 -0.408263
200.842 -0.180782
201.455 0.221327
202.067 0.570091
202.68 2.827369
203.294 2.745075
203.907 1.959041
204.52 3.062958
205.134 3.093772
205.748 2.682145
206.361 0.000000
206.975 -0.083932
207.589 0.000000
208.204 0.085217
208.818 -0.412404
209.433 2.907949
210.047 0.745572
210.662 3.055378
211.277 0.780844
211.892 -0.152450
212.507 3.209783
213.122 2.866287
213.738 2.985426
214.353 -2.673021
214.969 2.896526
215.585 -0.037273
216.201 2.806180
216.817 -0.074164
217.433 -0.553700
218.049 0.000000
218.666 0.892208
219.282 2.960946
219.899 0.614428
220.516 -2.294466
221.133 0.210038
221.75 3.183555
222.368 0.121593
222.985 -2.448706
223.603 2.632457
224.22 0.689995
224.838 2.890421
225.456 2.653213
226.074 2.632457
226.692 -2.294466
227.311 3.111934
227.929 3.252853
228.548 0.347051
229.167 -1.959041
229.786 0.453234
230.405 1.963788
231.024 -0.412991
231.643 0.873404
232.262 0.361045
232.882 -0.308065
233.501 0.338522
234.121 0.000000
234.741 0.157088
235.361 0.063359
235.982 2.562293
236.602 -2.245513
237.222 -0.431184
237.843 1.851258
238.464 0.216378
239.084 0.000000
239.706 -0.527981
240.327 0.137253
240.948 0.357882
241.569 2.632457
242.191 0.207260
242.812 1.140553
243.434 0.534886
244.056 0.000000
244.678 0.262225
245.3 2.357935
245.923 3.026125
246.545 2.396199
247.167 3.215373
247.79 1.845098
248.413 0.285028
249.036 3.030600
249.659 0.581907
250.282 3.189490
250.906 -0.230110
251.529 2.008600
252.153 0.455805
252.776 2.397940
253.4 -0.015848
254.024 0.627226
254.648 2.769377
255.273 3.097604
255.897 3.030195
256.521 -0.417650
257.146 -0.263241
257.771 0.000000
258.396 0.186259
259.021 0.017524
259.646 3.198382
260.271 2.621176
260.897 0.209884
261.522 3.142702
262.148 2.989895
262.774 -0.182847
263.399 1.016494
264.026 2.396199
264.652 0.559785
265.278 0.481136
265.904 -0.194966
266.531 2.294466
267.158 -0.034283
267.784 2.550228
268.411 0.776090
269.038 2.123852
269.666 2.965672
270.293 -2.710117
270.921 0.042094
271.548 -0.053110
272.176 0.405453
272.804 1.176505
273.432 3.165244
274.06 2.945961
274.688 0.805157
275.316 0.491897
275.945 0.402191
276.573 -0.343448
277.202 0.752809
277.831 3.118595
278.46 2.935507
279.089 -0.497525
279.718 0.511594
280.348 -0.159233
280.977 2.872156
281.607 0.000000
282.237 1.487845
282.866 2.791691
283.497 0.977521
284.127 -2.320146
284.757 0.117767
285.387 -2.960946
286.018 0.785043
286.648 0.646050
287.279 1.399797
287.91 2.621176
288.541 0.353388
289.172 -2.710117
289.803 0.000000
290.435 -2.053078
291.067 3.146128
291.698 -0.008063
292.33 0.236789
292.962 0.000000
293.594 2.994757
294.226 0.000000
294.858 3.074816
295.491 0.000000
296.123 0.709909
296.756 0.212292
297.389 0.114802
298.022 1.022114
298.654 3.177536
299.288 0.000000
299.921 0.225917
300.554 2.769377
301.188 0.061518
301.822 0.654621
302.455 0.588402
303.089 2.357935
303.723 2.924279
304.357 -0.692837
304.992 -0.341189
305.626 2.294466
306.261 0.712696
306.895 -0.475965
307.53 0.473279
308.165 -3.177536
308.8 0.361206
309.435 0.491208
310.07 0.232519
310.706 3.168203
311.341 1.050933
311.977 0.162244
312.613 -0.276752
313.249 3.332034
313.885 0.522879
314.521 3.104828
315.157 0.601683
315.793 0.173206
316.43 3.525174
317.067 3.463445
317.703 0.703802
318.34 0.080154
318.977 3.437592
319.614 0.657308
320.252 3.303412
320.889 0.338278
321.526 3.516800
322.164 0.717606
322.802 0.654747
323.44 3.437433
324.078 0.947448
324.716 0.198030
325.354 0.711609
325.992 0.162421
326.631 1.528416
327.269 3.416973
327.908 0.557544
328.547 3.636688
329.186 1.874115
329.825 1.190687
330.464 1.412785
331.104 3.526469
331.743 0.930666
332.383 3.520876
333.022 1.115599
333.662 1.270924
334.302 3.740521
334.942 3.626956
335.582 0.987666
336.223 0.993216
336.863 3.676053
337.504 3.672098
338.144 3.781037
338.785 3.703205
339.426 3.712144
340.067 3.741388
340.708 0.885805
341.349 0.688297
341.991 1.492709
342.632 0.691211
343.274 1.063861
343.916 3.793022
344.558 3.886829
345.2 3.834484
345.842 3.870521
346.484 2.208419
347.126 3.906012
347.769 3.886321
348.411 2.433713
349.054 3.926085
349.697 0.782385
350.34 1.747537
350.983 1.045664
351.626 3.954918
352.27 0.669882
352.913 1.049901
353.557 0.897109
354.2 3.930898
354.844 3.994273
355.488 3.989138
356.132 2.568369
356.776 1.321115
357.421 1.377542
358.065 3.991935
358.709 1.285338
359.354 1.196511
359.999 1.073235
360.644 1.855393
361.289 4.042142
361.934 4.009323
362.579 1.178616
363.224 1.270031
363.87 4.028164
364.515 4.049102
365.161 0.929399
365.807 4.020403
366.453 1.780106
367.099 1.385657
367.745 0.931123
368.392 4.101850
369.038 4.150173
369.685 1.445009
370.331 1.023031
370.978 1.862477
371.625 1.085892
372.272 1.216899
372.919 1.260539
373.566 1.071852
374.214 4.167937
374.861 1.439776
375.509 2.522045
376.156 4.224455
376.804 4.234720
377.452 2.579620
378.1 1.194081
378.748 1.792153
379.397 2.871031
380.045 1.401531
380.694 1.900904
381.342 2.025493
381.991 1.855612
382.64 2.651357
383.289 1.218462
383.938 1.505687
384.587 1.331341
385.237 1.178795
385.886 4.360745
386.536 4.371972
387.186 1.264520
387.836 1.141084
388.485 1.147487
389.135 1.197289
389.786 0.874052
390.436 0.952039
391.086 0.978260
391.737 0.925148
392.387 0.814395
393.038 0.788747
393.689 0.700227
394.34 0.587953
394.991 0.584499
395.642 0.526949
396.294 0.494879
396.945 0.535108
397.597 0.457455
398.248 0.472126
398.9 0.363803
399.552 0.476908
400.204 0.377397
400.856 0.403091
401.509 0.354223
402.161 0.319744
402.813 0.259229
403.466 0.284313
404.119 0.274076
404.772 0.348297
405.425 0.219599
406.078 0.261979
406.731 0.225102
407.384 0.242039
408.038 0.254719
408.691 0.219459
409.345 0.198072
409.998 0.214810
410.652 0.233616
411.306 0.236442
411.961 0.225818
412.615 0.195890
413.269 0.165507
413.923 0.208612
414.578 0.221557
415.233 0.185957
415.887 0.221146
416.542 0.193084
417.197 0.182058
417.852 0.190120
418.508 0.162048
419.163 0.185749
419.818 0.193875
420.474 0.175461
421.13 0.205658
421.786 0.206113
422.442 0.198626
423.098 0.189150
423.754 0.203868
424.41 0.192975
425.066 0.196500
425.723 0.178567
426.379 0.170304
427.036 0.226168
427.693 0.198615
428.35 0.212038
429.007 0.229547
429.664 0.200656
430.321 0.227742
430.979 0.227038
431.636 0.208270
432.294 0.216401
432.952 0.237185
433.609 0.224608
434.267 0.255496
434.925 0.266534
435.584 0.201385
436.242 0.231226
436.9 0.282717
437.559 0.263832
438.217 0.247935
438.876 0.247744
439.535 0.288357
440.194 0.291877
440.853 0.270760
441.512 0.267775
442.171 0.296021
442.831 0.265780
443.49 0.283883
444.15 0.296973
444.81 0.305954
445.469 0.312366
446.129 0.301818
446.789 0.344275
447.45 0.299902
448.11 0.367379
448.77 0.303697
449.431 0.348689
450.091 0.370782
450.752 0.392617
451.413 0.361729
452.074 0.387722
452.735 0.371255
453.396 0.384744
454.057 0.402102
454.719 0.416344
455.38 0.397817
456.042 0.456992
456.704 0.446283
457.365 0.450459
458.027 0.500146
458.689 0.451650
459.352 0.495813
460.014 0.473389
460.676 0.477166
461.339 0.546449
462.001 0.503654
462.664 0.520636
463.327 0.504486
463.99 0.594072
464.653 0.574385
465.316 0.651851
465.979 0.584912
466.642 0.633168
467.306 0.642497
467.97 0.659017
468.633 0.683056
469.297 0.605574
469.961 0.678973
470.625 0.746363
471.289 0.626185
471.953 0.700443
472.618 0.667105
473.282 0.806729
473.947 0.746990
474.611 0.745492
475.276 0.779831
475.941 0.827723
476.606 0.720120
477.271 0.839703
477.936 0.823560
478.602 0.884437
479.267 0.851474
479.933 0.866094
480.598 0.929731
481.264 0.890411
481.93 0.786852
482.596 0.991091
483.262 0.974718
483.928 1.026591
484.594 0.842150
485.261 1.022595
485.927 1.040796
486.594 1.088307
487.26 1.104367
487.927 1.090833
488.594 1.056635
489.261 1.153845
489.928 1.017827
490.596 0.998741
491.263 1.294692
491.93 1.228799
492.598 1.368080
493.266 1.270854
493.933 1.301543
494.601 1.124653
495.269 1.077362
495.937 1.339407
496.606 1.281082
497.274 1.212443
497.942 1.162796
498.611 1.199119
499.279 1.154887
499.948 1.373075
500.617 1.141135
501.286 1.309805
501.955 1.265837
502.624 1.078140
503.293 1.318394
503.963 1.311976
504.632 1.146077
505.302 1.739974
505.972 1.332447
506.641 1.299020
507.311 1.204450
507.981 1.253318
508.651 1.277752
509.322 1.164812
509.992 1.282231
510.662 1.434382
511.333 1.389931
512.004 1.309368
512.674 1.080852
513.345 1.280718
514.016 1.147848
514.687 1.103216
515.358 1.371088
516.029 1.214908
516.701 1.199625
517.372 1.287180
518.044 1.280704
518.716 1.253390
519.387 1.346077
520.059 1.291890
520.731 1.342837
521.403 1.110371
522.076 1.570538
522.748 1.061732
523.42 1.173513
524.093 1.039272
524.765 1.012097
525.438 1.250723
526.111 1.035504
526.784 0.991319
527.457 1.124280
528.13 0.928412
528.803 1.087572
529.476 0.927855
530.15 1.069092
530.823 0.861899
531.497 0.901167
532.171 0.853187
532.845 0.907902
533.519 0.901828
534.193 0.746695
534.867 0.860435
535.541 1.069237
536.216 0.784465
536.89 0.825024
537.564 0.846459
538.239 0.738284
538.914 0.764514
539.589 0.772557
540.264 0.703520
540.939 0.613743
541.614 0.598067
542.289 0.673800
542.965 0.628380
543.64 0.650348
544.316 0.616008
544.991 0.609704
545.667 0.603671
546.343 0.581243
547.019 0.497849
547.695 0.538322
548.371 0.530166
549.048 0.511686
549.724 0.510478
550.401 0.463446
551.077 0.440910
551.754 0.427494
552.431 0.455903
553.108 0.414299
553.785 0.417690
554.462 0.428086
555.139 0.356514
555.816 0.375807
556.494 0.361907
557.171 0.370750
557.849 0.337566
558.527 0.331905
559.204 0.285649
559.882 0.308988
560.56 0.315271
561.238 0.303343
561.917 0.279015
562.595 0.292177
563.273 0.283148
563.952 0.265804
564.63 0.245307
565.309 0.218243
565.988 0.245408
566.667 0.259539
567.346 0.227312
568.025 0.215951
568.704 0.236185
569.384 0.208599
570.063 0.209733
570.742 0.209058
571.422 0.199095
572.102 0.192004
572.782 0.191780
573.462 0.183620
574.141 0.189513
574.822 0.172068
575.502 0.185066
576.182 0.180504
576.863 0.163310
577.543 0.166195
578.224 0.164159
578.904 0.164964
579.585 0.148923
580.266 0.144767
580.947 0.145020
581.628 0.133805
582.309 0.138846
582.991 0.126390
583.672 0.143554
584.354 0.135790
585.035 0.133146
585.717 0.132603
586.399 0.124893
587.08 0.120459
587.762 0.117386
588.444 0.119639
589.127 0.115506
589.809 0.111475
590.491 0.110498
591.174 0.113387
591.856 0.115416
592.539 0.104458
593.222 0.109236
593.905 0.106603
594.587 0.106828
595.27 0.112844
595.954 0.105581
596.637 0.105938
597.32 0.120878
598.004 0.119723
598.687 0.107511
599.371 0.100850
600.055 0.098038
600.738 0.098033
601.422 0.090516
602.106 0.107267
602.79 0.099698
603.475 0.095546
604.159 0.100138
604.843 0.091066
605.528 0.090796
606.212 0.096564
606.897 0.097715
607.582 0.091502
608.267 0.099459
608.952 0.094297
609.637 0.098566
610.322 0.083150
611.007 0.084631
611.693 0.089810
612.378 0.095282
613.064 0.088626
613.749 0.075971
614.435 0.089120
615.121 0.078102
615.807 0.084981
616.493 0.096646
617.179 0.081564
617.865 0.098738
618.552 0.067237
619.238 0.101651
619.924 0.085370
620.611 0.073756
621.298 0.087854
621.985 0.093909
622.671 0.088788
623.358 0.091530
624.045 0.087330
624.733 0.060300
625.42 0.067982
626.107 0.074657
626.795 0.091878
627.482 0.068790
628.17 0.057351
628.858 0.075640
629.545 0.064490
630.233 0.095448
630.921 0.076525
631.609 0.070688
632.298 0.063439
632.986 0.087132
633.674 0.083676
634.363 0.086280
635.051 0.122182
635.74 0.093806
636.429 0.082109
637.118 0.080192
637.807 0.081140
638.496 0.089321
639.185 0.060276
639.874 0.069481
640.563 0.058014
641.253 0.084473
641.942 0.053919
642.632 0.045302
643.322 0.100923
644.011 0.080410
644.701 0.115031
645.391 0.095477
646.081 0.077030
646.771 0.102706
647.462 0.098055
648.152 0.085622
648.842 0.047616
649.533 0.082386
650.224 0.072046
650.914 0.065621
651.605 0.088897
652.296 0.045842
652.987 0.080953
653.678 0.062143
654.369 0.095778
655.061 0.143554
655.752 0.102831
656.443 0.001458
657.135 0.091763
657.826 0.096513
658.518 0.100437
659.21 0.135337
659.902 0.177662
660.594 0.133732
661.286 0.105504
661.978 0.087914
662.67 0.096677
663.363 0.088346
664.055 0.065950
664.748 0.122585
665.44 0.064652
666.133 0.072426
666.826 0.071021
667.519 0.047848
668.212 0.054273
668.905 0.091254
669.598 0.089154
670.291 0.113252
670.985 0.093075
671.678 0.099397
672.372 0.045512
673.065 0.049338
673.759 0.079178
674.453 0.068859
675.147 0.073993
675.841 0.075687
676.535 0.063255
677.229 0.045014
677.923 0.107688
678.617 0.055338
679.312 0.072887
680.006 0.119553
680.701 0.100809
681.396 0.078036
682.091 0.082337
682.785 0.066597
683.48 0.080359
684.175 0.079592
684.87 0.090075
685.566 0.064449
686.261 0.097900
686.957 0.086009
687.652 0.070553
688.348 0.077342
689.043 0.098326
689.739 0.087788
690.435 0.040041
691.131 0.106546
691.827 0.093429
692.523 0.086100
693.219 0.081140
693.915 0.069832
694.612 0.074274
695.308 0.103133
696.005 0.084820
696.702 0.083453
697.398 0.090352
698.095 0.094480
698.792 0.068380
699.489 0.094597
700.186 0.092243
700.883 0.107365
701.581 0.063828
702.278 0.089406
702.975 0.060819
703.673 0.079780
704.37 0.066471
705.068 0.056067
705.766 0.072517
706.464 0.132570
707.162 0.048240
707.86 0.088863
708.558 0.072086
709.256 0.080015
709.955 0.040571
710.653 0.070930
711.351 0.072318
712.05 0.079685
712.749 0.078202
713.447 0.049258
714.146 0.064072
714.845 0.078714
715.544 0.063593
716.243 0.043315
716.942 0.075414
717.642 0.072688
718.341 0.097103
719.04 0.100554
719.74 0.077253
720.439 0.079172
721.139 0.088305
721.839 0.134292
722.539 0.088078
723.239 0.117649
723.939 0.090166
724.639 0.131451
725.339 0.083669
726.039 0.099652
726.74 0.074741
727.44 0.100768
728.141 0.082661
728.841 0.063116
729.542 0.081385
730.243 0.080223
730.944 0.091475
731.645 0.109022
732.346 0.075328
733.047 0.082463
733.748 0.099718
734.449 0.098057
735.151 0.063705
735.852 0.089842
736.554 0.134482
737.256 0.068105
737.957 0.073833
738.659 0.079708
739.361 0.079901
740.063 0.067041
740.765 0.070288
741.467 0.104732
742.169 0.053378
742.872 0.074762
743.574 0.059750
744.277 0.088225
744.979 0.079293
745.682 0.043997
746.385 0.081353
747.087 0.067074
747.79 0.081915
748.493 0.077327
749.196 0.055718
749.899 0.078467
750.603 0.090052
751.306 0.093039
752.01 0.084893
752.713 0.094284
753.417 0.059778
754.12 0.102532
754.824 0.077483
755.528 0.066556
756.232 0.081913
756.936 0.086997
757.64 0.080225
758.344 0.082577
759.048 0.073950
759.752 0.082431
760.457 0.076498
761.161 0.084348
761.866 0.117660
762.571 0.051112
763.275 0.075806
763.98 0.087452
764.685 0.083773
765.39 0.091253
766.095 0.076918
766.8 0.093846
767.505 0.052882
768.211 0.086898
768.916 0.119962
769.621 0.083981
770.327 0.076604
771.033 0.073085
771.738 0.079148
772.444 0.090603
773.15 0.061009
773.856 0.104073
774.562 0.087242
775.268 0.066543
775.974 0.077556
776.68 0.119716
777.387 0.100410
778.093 0.079648
778.8 0.060674
779.506 0.096081
780.213 0.143264
780.92 0.109137
781.626 0.073922
782.333 0.058289
783.04 0.059911
783.747 0.059877
784.455 0.049460
785.162 0.078568
785.869 0.087371
786.577 0.117980
787.284 0.086981
787.992 0.070294
788.699 0.080031
789.407 0.077989
790.115 0.082149
790.823 0.077538
791.531 0.087158
792.239 0.087059
792.947 0.055409
793.655 0.077178
794.363 0.081881
795.072 0.094074
795.78 0.071599
796.489 0.084540
797.197 0.065041
797.906 0.090170
798.615 0.096330
799.323 0.091491
800.032 0.082897
800.741 0.101705
801.45 0.109629
802.159 0.126549
802.869 0.019071
803.578 0.106839
804.287 0.061126
804.997 0.089302
805.706 0.094431
806.416 0.052461
807.126 0.116949
807.835 0.080938
808.545 0.123617
809.255 0.059513
809.965 0.039344
810.675 0.049788
811.385 0.108406
812.096 0.053749
812.806 0.072871
813.516 0.083856
814.227 0.102345
814.937 0.099614
815.648 0.031948
816.359 0.078724
817.069 0.065017
817.78 0.045351
818.491 0.059248
819.202 0.086602
819.913 0.107677
820.624 0.100512
821.336 0.105119
822.047 0.149585
822.758 0.079392
823.47 0.131801
824.181 0.120646
824.893 0.066841
825.605 0.108424
826.317 0.074556
827.028 0.091265
827.74 0.085527
828.452 -0.019154
829.164 0.008405
829.876 0.043359
830.589 0.110372
831.301 0.162712
832.013 0.189368
832.726 0.134074
833.438 0.060356
834.151 0.075388
834.864 0.135370
835.577 0.099295
836.289 0.084263
837.002 0.169016
837.715 0.011105
838.428 0.031944
839.141 0.150120
839.855 0.083480
840.568 0.088008
841.281 0.243643
841.995 0.012977
842.708 0.006058
843.422 0.435115
844.135 0.088950
844.849 0.051182
845.563 0.067327
846.277 -0.035871
846.991 0.080461
847.705 0.090388
848.419 0.131320
849.133 0.050898
849.847 0.160408
850.562 0.198348
851.276 -0.072705
851.991 0.039708
852.705 0.078153
853.42 0.103566
854.135 0.073808
854.85 0.157284
855.564 0.091129
856.279 0.148440
856.994 0.047604
857.709 0.103334
858.424 0.004248
859.14 0.105429
859.855 0.062311
860.57 0.144604
861.286 0.097121
862.001 0.054780
862.717 0.016482
863.433 0.161982
864.148 0.066380
864.864 0.108852
865.58 0.002593
866.296 0.150251
867.012 0.251665
867.728 0.084825
868.444 0.061789
869.161 -0.078448
869.877 0.131983
870.593 0.058126
871.31 0.121507
872.026 -0.066036
872.743 0.015645
873.46 0.194341
874.176 0.259948
874.893 0.132068
875.61 0.105987
876.327 0.164949
877.044 0.073763
877.761 0.074528
878.478 0.144925
879.196 0.149716
879.913 0.116531
880.63 0.167020
881.348 0.004106
882.065 0.235743
882.783 0.220661
883.501 0.051042
884.218 0.107810
884.936 0.030062
885.654 0.062134
886.372 0.098407
887.09 0.100047
887.808 -0.020336
888.527 0.061501
889.245 0.038838
889.963 0.086190
890.682 0.048886
891.4 0.142979
892.119 0.084122
892.837 0.110654
893.556 -0.006287
894.275 0.304282
894.994 0.168813
895.712 0.125244
896.431 0.147828
897.15 0.120254
897.87 0.092708
898.589 0.145689
899.308 0.318425
900.027 -0.016634
900.747 0.008302
901.466 0.171205
902.186 0.137652
902.905 0.244681
903.625 0.150380
904.345 0.007183
905.064 0.107087
905.784 0.392397
906.504 0.221401
907.224 0.281470
907.944 0.034284
908.664 -0.025936
909.385 0.095094
910.105 0.183234
910.825 0.038248
911.546 0.074690
912.266 0.155477
912.987 0.075811
913.707 0.079153
914.428 0.000000
915.149 -0.092036
915.87 0.178205
916.591 -0.033508
917.312 0.225083
918.033 0.091396
918.754 0.087150
919.475 0.163981
920.196 -0.054261
920.918 0.184887
921.639 0.349800
922.361 -0.058224
923.082 0.196139
923.804 0.155262
924.525 0.436221
925.247 0.170858
925.969 -0.008521
926.691 0.153637
927.413 0.167168
928.135 0.335681
928.857 0.162727
929.579 0.128837
930.301 0.615401
931.023 0.150238
931.746 0.194589
932.468 0.104842
933.191 0.164581
933.913 0.006845
934.636 0.069942
935.358 0.301569
936.081 -0.065505
936.804 1.231930
937.527 0.494850
938.25 0.456428
938.973 0.574372
939.696 0.287748
940.419 0.285944
941.142 -0.298640
941.865 0.648757
942.589 0.007834
943.312 0.215001
944.036 -0.023269
944.759 1.097174
945.483 3.272770
946.207 3.136086
946.93 -0.342984
947.654 0.688196
948.378 0.487573
949.102 0.194768
949.826 -0.160461
950.55 -0.029947
951.274 0.306464
951.998 0.154761
952.723 0.283926
953.447 -0.199759
954.171 -1.113377
954.896 0.359625
955.62 -0.315928
956.345 0.109503
957.07 3.067071
957.794 0.509893
958.519 0.710833
959.244 0.000000
959.969 0.141853
960.694 -0.293376
961.419 -0.287304
962.144 -0.335579
962.869 -0.114453
963.594 0.409193
964.32 1.455622
965.045 2.945961
965.77 -0.035304
966.496 -0.468879
967.222 0.539318
967.947 0.206526
968.673 0.077548
969.399 0.558070
970.125 -0.216503
970.85 -0.174111
971.576 0.220393
972.302 -0.059172
973.028 0.236014
973.755 -0.107711
974.481 0.344496
975.207 0.296295
975.933 0.663367
976.66 0.306084
977.386 -0.306078
978.113 -0.457816
978.839 0.912360
979.566 2.663701
980.293 3.008600
981.019 -0.155132
981.746 1.845098
982.473 0.046750
983.2 2.990339
983.927 2.890421
984.654 0.127965
985.381 0.239275
986.109 0.000000
986.836 0.633500
987.563 0.068246
988.291 -0.220035
989.018 0.776821
989.746 -1.071494
990.473 0.174331
991.201 2.745075
991.928 -3.104828
992.656 0.094597
993.384 3.021603
994.112 2.806180
994.84 0.000000
995.568 2.884795
996.296 2.827369
997.024 -0.797737
997.752 2.768638
998.481 1.045323
999.209 0.000000
999.937 -0.642883
1000.67 -0.159122
1001.39 2.745075
1002.12 0.713001
1002.85 2.913284
1003.58 -2.245513
1004.31 2.719331
1005.04 0.221419
1005.77 1.093707
1006.5 0.853872
1007.22 -0.019808
1007.95 3.146128
1008.68 2.691965
1009.41 -2.950851
1010.14 2.432969
1010.87 0.601763
1011.6 1.591065
1012.33 0.717080
1013.06 -2.776701
1013.79 0.435206
1014.52 0.681960
1015.25 2.940516
1015.98 2.450249
1016.71 -0.818268
1017.44 1.717195
1018.17 0.783018
1018.9 3.021603
1019.63 0.000000
1020.36 2.575188
1021.09 0.466928
1021.82 0.000000
1022.55 2.902003
1023.03 0.225202