File: Auto_Polymerization/Data/UV_VIS_Spectra/MRG-061-F5_spectra_while_stopped_with_alu_foil/spectrum_2025-06-20_09-47-35.txt
# Wavelength (nm)	Intensity (a.u.)
197.7802	0.002090
198.3922	-0.000504
199.0044	0.000782
199.6168	0.000255
200.2292	0.000234
200.8418	0.000508
201.4546	0.002132
202.0674	0.000360
202.6805	0.001288
203.2936	0.000719
203.9069	0.000993
204.5203	-0.000863
205.1338	0.000571
205.7475	0.000888
206.3614	0.000656
206.9753	-0.000652
207.5894	-0.000589
208.2036	0.000044
208.8180	0.000445
209.4325	0.001141
210.0471	0.000318
210.6618	0.001373
211.2767	0.001077
211.8918	-0.000947
212.5069	0.000466
213.1222	0.000381
213.7376	-0.000336
214.3532	-0.000779
214.9689	0.000529
215.5847	0.000381
216.2007	0.000782
216.8168	-0.001264
217.4330	0.000845
218.0494	0.000065
218.6659	0.000592
219.2825	0.002681
219.8992	0.001605
220.5161	-0.000272
221.1332	0.001394
221.7503	-0.000209
222.3676	0.000740
222.9850	0.001563
223.6026	0.001415
224.2203	-0.000652
224.8381	-0.000441
225.4561	0.000635
226.0742	0.000529
226.6924	-0.000652
227.3107	-0.000125
227.9292	0.000424
228.5478	0.000803
229.1666	-0.000040
229.7855	0.000107
230.4045	-0.000019
231.0236	0.001478
231.6429	-0.000462
232.2623	0.001584
232.8818	0.000592
233.5015	-0.000083
234.1213	0.000424
234.7413	0.000318
235.3613	0.000529
235.9815	0.000613
236.6018	-0.000209
237.2223	0.001921
237.8429	0.001099
238.4636	0.000128
239.0845	-0.000441
239.7055	-0.000483
240.3266	-0.001665
240.9478	0.001415
241.5692	-0.000715
242.1907	0.000170
242.8124	0.001056
243.4341	0.001288
244.0560	0.000002
244.6781	0.000276
245.3002	0.001056
245.9225	-0.000315
246.5449	0.000255
247.1675	-0.000040
247.7902	0.001584
248.4130	0.001499
249.0359	0.001120
249.6590	0.001035
250.2822	-0.000083
250.9056	0.000403
251.5290	0.001394
252.1526	0.001520
252.7763	0.000213
253.4002	0.001120
254.0242	-0.000251
254.6483	0.000761
255.2725	-0.000125
255.8969	0.000002
256.5214	0.001120
257.1460	0.000930
257.7708	-0.000146
258.3957	-0.000736
259.0207	-0.000272
259.6459	0.000297
260.2711	-0.000842
260.8965	0.002048
261.5221	-0.001222
262.1477	0.000698
262.7735	-0.000188
263.3995	0.000107
264.0255	0.000445
264.6517	0.000403
265.2780	0.000719
265.9044	0.000128
266.5310	-0.000884
267.1577	-0.000209
267.7845	0.000403
268.4114	0.000782
269.0385	0.001120
269.6657	0.000002
270.2931	0.000740
270.9205	0.000677
271.5481	-0.000272
272.1758	0.002385
272.8037	0.000719
273.4316	0.000445
274.0597	-0.000673
274.6880	-0.000019
275.3163	0.000466
275.9448	0.001879
276.5734	0.000192
277.2022	0.001605
277.8310	0.000318
278.4600	-0.000062
279.0891	-0.000209
279.7184	0.001204
280.3477	0.000445
280.9772	-0.001327
281.6069	-0.000251
282.2366	0.001710
282.8665	0.000635
283.4965	0.001394
284.1266	0.000023
284.7569	-0.000125
285.3873	-0.000357
286.0178	0.000571
286.6484	0.001478
287.2792	-0.000863
287.9101	0.001774
288.5411	0.000719
289.1723	0.000571
289.8035	-0.000167
290.4349	0.001605
291.0665	0.000698
291.6981	0.000677
292.3299	0.000740
292.9618	-0.000146
293.5938	0.001035
294.2260	-0.000800
294.8582	-0.000230
295.4906	0.000213
296.1232	0.000445
296.7558	0.000761
297.3886	0.001288
298.0215	-0.000736
298.6545	-0.000526
299.2877	-0.000652
299.9210	0.000951
300.5544	-0.001011
301.1879	0.000613
301.8215	0.001731
302.4553	0.000466
303.0892	-0.000441
303.7233	-0.000062
304.3574	0.000698
304.9917	0.001352
305.6261	0.000128
306.2606	0.000381
306.8953	0.000213
307.5301	0.001246
308.1650	0.000213
308.8000	0.000529
309.4351	0.001162
310.0704	0.001542
310.7058	-0.000441
311.3413	0.001309
311.9770	0.000550
312.6127	0.000445
313.2486	0.000613
313.8846	0.001204
314.5208	0.000360
315.1570	-0.000209
315.7934	-0.000483
316.4299	-0.000083
317.0666	0.000023
317.7033	-0.000589
318.3402	0.000698
318.9772	0.000909
319.6143	0.001542
320.2516	0.001014
320.8890	0.001605
321.5265	0.000002
322.1641	0.000656
322.8018	0.000128
323.4397	0.001394
324.0777	0.000951
324.7158	-0.000758
325.3540	0.000656
325.9924	0.000065
326.6308	0.000951
327.2694	-0.000441
327.9082	0.002048
328.5470	0.000255
329.1860	0.000719
329.8251	0.000107
330.4643	0.000529
331.1036	0.000824
331.7431	0.000487
332.3826	-0.000294
333.0223	0.002216
333.6622	0.000297
334.3021	0.000023
334.9422	0.000297
335.5823	0.001394
336.2227	0.001499
336.8631	0.001626
337.5036	0.001921
338.1443	0.001141
338.7851	-0.000589
339.4260	0.001014
340.0670	0.000318
340.7082	0.001605
341.3495	0.000297
341.9909	-0.000019
342.6324	-0.000062
343.2740	0.000698
343.9158	0.002659
344.5577	-0.000125
345.1997	-0.000779
345.8418	0.000403
346.4840	0.000529
347.1264	0.001415
347.7689	0.000318
348.4115	0.000824
349.0542	-0.000420
349.6971	-0.000399
350.3400	-0.000083
350.9831	0.000044
351.6263	0.000677
352.2696	0.000086
352.9131	-0.000673
353.5566	-0.000062
354.2003	0.001288
354.8441	-0.000146
355.4881	0.001225
356.1321	0.000824
356.7763	0.000635
357.4206	0.000613
358.0650	0.000276
358.7095	0.001056
359.3541	0.000128
359.9989	0.001288
360.6438	0.000719
361.2888	0.000445
361.9339	0.000487
362.5791	0.000972
363.2245	0.001626
363.8699	0.001077
364.5155	0.000571
365.1612	-0.000441
365.8071	-0.000926
366.4530	0.000002
367.0991	0.000466
367.7453	0.000888
368.3916	-0.000610
369.0380	0.001478
369.6845	0.000297
370.3312	0.000740
370.9780	0.000613
371.6249	0.001056
372.2719	-0.000336
372.9190	0.001584
373.5663	0.000044
374.2136	0.000782
374.8611	0.000719
375.5087	0.000888
376.1564	0.000698
376.8043	0.001056
377.4522	0.000656
378.1003	0.000592
378.7485	0.001056
379.3968	-0.000504
380.0452	0.000698
380.6938	-0.000019
381.3424	-0.000019
381.9912	0.002027
382.6401	-0.000019
383.2891	0.001077
383.9382	0.000297
384.5875	0.000424
385.2368	0.001710
385.8863	-0.000019
386.5359	0.001099
387.1856	0.001267
387.8355	-0.000315
388.4854	0.001605
389.1355	-0.000062
389.7856	0.002744
390.4359	0.000002
391.0863	0.002470
391.7369	0.002006
392.3875	0.002069
393.0383	0.002554
393.6891	0.002470
394.3401	0.003545
394.9912	0.002891
395.6425	0.002512
396.2938	0.003904
396.9453	0.003060
397.5968	0.004410
398.2485	0.005697
398.9003	0.006098
399.5522	0.007194
400.2043	0.005971
400.8564	0.005676
401.5087	0.008397
402.1610	0.005380
402.8135	0.007110
403.4661	0.007258
404.1189	0.007869
404.7717	0.009557
405.4246	0.009789
406.0777	0.008882
406.7309	0.008481
407.3842	0.009367
408.0376	0.010189
408.6911	0.010759
409.3448	0.010654
409.9985	0.011603
410.6524	0.011181
411.3064	0.011012
411.9605	0.011750
412.6147	0.012025
413.2690	0.011919
413.9234	0.012784
414.5780	0.012699
415.2326	0.015104
415.8874	0.012025
416.5423	0.013164
417.1973	0.013733
417.8524	0.014281
418.5077	0.014703
419.1630	0.014745
419.8185	0.014872
420.4741	0.016201
421.1298	0.016370
421.7856	0.018437
422.4415	0.018078
423.0975	0.018795
423.7536	0.019280
424.4099	0.016707
425.0663	0.018036
425.7228	0.018690
426.3793	0.016180
427.0361	0.017656
427.6929	0.017487
428.3498	0.018162
429.0068	0.018605
429.6640	0.021453
430.3213	0.021073
430.9787	0.022191
431.6362	0.017994
432.2938	0.020356
432.9515	0.018268
433.6093	0.018247
434.2673	0.021453
434.9253	0.018015
435.5835	0.018626
436.2418	0.020440
436.9001	0.020103
437.5586	0.020040
438.2173	0.018964
438.8760	0.019512
439.5348	0.021305
440.1938	0.019175
440.8528	0.020736
441.5120	0.023984
442.1713	0.022929
442.8307	0.020019
443.4902	0.023499
444.1498	0.024807
444.8095	0.022655
445.4694	0.020757
446.1293	0.020989
446.7894	0.022043
447.4496	0.021643
448.1098	0.021305
448.7702	0.018563
449.4307	0.019449
450.0914	0.017888
450.7521	0.019533
451.4129	0.018184
452.0739	0.018837
452.7349	0.017171
453.3961	0.018837
454.0574	0.016644
454.7188	0.015463
455.3803	0.016370
456.0419	0.016918
456.7036	0.013670
457.3654	0.015104
458.0274	0.015231
458.6894	0.016327
459.3516	0.014176
460.0138	0.015209
460.6762	0.015167
461.3387	0.014640
462.0013	0.013227
462.6640	0.012931
463.3268	0.012805
463.9897	0.013332
464.6528	0.013079
465.3159	0.012510
465.9792	0.013543
466.6425	0.010780
467.3060	0.011835
467.9696	0.009536
468.6333	0.008544
469.2970	0.009219
469.9610	0.008376
470.6250	0.007237
471.2891	0.006224
471.9533	0.008228
472.6177	0.008987
473.2821	0.007426
473.9467	0.007848
474.6113	0.008629
475.2761	0.007637
475.9410	0.006730
476.6060	0.007469
477.2711	0.006013
477.9363	0.007785
478.6016	0.005591
479.2670	0.006920
479.9325	0.004790
480.5982	0.007026
481.2639	0.006013
481.9298	0.005591
482.5957	0.005148
483.2618	0.005971
483.9280	0.006414
484.5943	0.005233
485.2606	0.006034
485.9271	0.015167
486.5937	0.011118
487.2605	0.008228
487.9273	0.004494
488.5942	0.002301
489.2612	0.003461
489.9284	0.003524
490.5956	0.004305
491.2630	0.005591
491.9304	0.002976
492.5980	0.004959
493.2657	0.005528
493.9334	0.003081
494.6013	0.003081
495.2693	0.003419
495.9374	0.002702
496.6056	0.003988
497.2739	0.004009
497.9423	0.003081
498.6109	0.003735
499.2795	0.002828
499.9482	0.004030
500.6171	0.002343
501.2860	0.004009
501.9551	0.004136
502.6242	0.001499
503.2935	0.003292
503.9628	0.002617
504.6323	0.001035
505.3019	0.001647
505.9716	0.003334
506.6414	0.002280
507.3113	0.003355
507.9813	0.002470
508.6514	0.002427
509.3216	0.002723
509.9919	0.002153
510.6623	0.002195
511.3329	0.001879
512.0035	0.003482
512.6742	0.002638
513.3451	0.002343
514.0160	0.001014
514.6871	0.002048
515.3582	0.001689
516.0295	0.001520
516.7008	0.004537
517.3723	0.001099
518.0439	0.003946
518.7155	0.003334
519.3873	0.002111
520.0592	0.002575
520.7312	0.003693
521.4033	0.002891
522.0755	0.002870
522.7478	0.003081
523.4202	0.003777
524.0927	0.003081
524.7653	0.001415
525.4380	0.003820
526.1108	0.004790
526.7837	0.003060
527.4568	0.005697
528.1299	0.003862
528.8031	0.004537
529.4765	0.004494
530.1499	0.003862
530.8234	0.004136
531.4971	0.003735
532.1708	0.006308
532.8447	0.004895
533.5186	0.006393
534.1927	0.006287
534.8668	0.005908
535.5411	0.005338
536.2155	0.006836
536.8899	0.006751
537.5645	0.008629
538.2392	0.005950
538.9139	0.007595
539.5888	0.008692
540.2638	0.010211
540.9389	0.008650
541.6140	0.010105
542.2893	0.011603
542.9647	0.009430
543.6402	0.011582
544.3158	0.011539
544.9915	0.014682
545.6673	0.012868
546.3432	0.011750
547.0192	0.012910
547.6953	0.013522
548.3715	0.016749
549.0478	0.014197
549.7242	0.015969
550.4007	0.014197
551.0773	0.015083
551.7540	0.015842
552.4308	0.018521
553.1077	0.017150
553.7847	0.019323
554.4618	0.016960
555.1390	0.017973
555.8163	0.021094
556.4937	0.021601
557.1712	0.021601
557.8488	0.022191
558.5266	0.019660
559.2044	0.020208
559.8823	0.024195
560.5603	0.025460
561.2384	0.030923
561.9166	0.028793
562.5949	0.027675
563.2733	0.027064
563.9519	0.029700
564.6305	0.030839
565.3092	0.034130
565.9880	0.033223
566.6669	0.036197
567.3459	0.041892
568.0250	0.047355
568.7043	0.055496
569.3836	0.062794
570.0630	0.081440
570.7425	0.088928
571.4221	0.107321
572.1018	0.111666
572.7816	0.096732
573.4615	0.117213
574.1415	0.132020
574.8216	0.144823
575.5018	0.143326
576.1821	0.130438
576.8626	0.149274
577.5431	0.159883
578.2237	0.202406
578.9044	0.165599
579.5851	0.168616
580.2660	0.172075
580.9470	0.164355
581.6281	0.265241
582.3093	0.254821
582.9906	0.197154
583.6720	0.160790
584.3535	0.160664
585.0351	0.186692
585.7167	0.198419
586.3985	0.170683
587.0804	0.173298
587.7624	0.188633
588.4445	0.170050
589.1266	0.144971
589.8089	0.134910
590.4913	0.122992
591.1737	0.106456
591.8563	0.107679
592.5389	0.126346
593.2217	0.168573
593.9046	0.162014
594.5875	0.141955
595.2705	0.161803
595.9537	0.146026
596.6369	0.121347
597.3203	0.123646
598.0037	0.121537
598.6872	0.127970
599.3709	0.154041
600.0546	0.150919
600.7384	0.150539
601.4223	0.154188
602.1064	0.137504
602.7905	0.144992
603.4747	0.158154
604.1590	0.144001
604.8434	0.129616
605.5279	0.136365
606.2125	0.139930
606.8972	0.130438
607.5819	0.135121
608.2668	0.128519
608.9518	0.119976
609.6369	0.110885
610.3220	0.128835
611.0073	0.117762
611.6927	0.118162
612.3781	0.106224
613.0637	0.108164
613.7493	0.105992
614.4351	0.104283
615.1209	0.104705
615.8068	0.109599
616.4929	0.096753
617.1790	0.090911
617.8652	0.092176
618.5515	0.085258
619.2379	0.076568
619.9244	0.078424
620.6110	0.083043
621.2977	0.060094
621.9845	0.069586
622.6714	0.070831
623.3584	0.076146
624.0454	0.071358
624.7326	0.077475
625.4199	0.070156
626.1072	0.067139
626.7947	0.060031
627.4822	0.058660
628.1698	0.056846
628.8576	0.048430
629.5454	0.051995
630.2333	0.051130
630.9213	0.049675
631.6094	0.045583
632.2976	0.042060
632.9859	0.037968
633.6743	0.038918
634.3628	0.036260
635.0514	0.033244
635.7400	0.034889
636.4288	0.038875
637.1177	0.037357
637.8066	0.035205
638.4957	0.035669
639.1848	0.035648
639.8740	0.031716
640.5633	0.031959
641.2528	0.031310
641.9423	0.026436
642.6319	0.027328
643.3216	0.025805
644.0113	0.025839
644.7012	0.023196
645.3912	0.022581
646.0812	0.021648
646.7714	0.020364
647.4616	0.019895
648.1520	0.025014
648.8424	0.027506
649.5329	0.029982
650.2236	0.026220
650.9143	0.024757
651.6051	0.025697
652.2960	0.028138
652.9870	0.026640
653.6780	0.027104
654.3692	0.030410
655.0605	0.048987
655.7518	0.803207
656.4433	1.000000
657.1348	0.740784
657.8264	0.450626
658.5181	0.335555
659.2099	0.251453
659.9018	0.063697
660.5938	0.026250
661.2859	0.018815
661.9781	0.019083
662.6704	0.018226
663.3627	0.018947
664.0552	0.017144
664.7477	0.018733
665.4403	0.021423
666.1330	0.020544
666.8259	0.018305
667.5188	0.019283
668.2117	0.018309
668.9048	0.018732
669.5980	0.018352
670.2913	0.016053
670.9846	0.018205
671.6781	0.028308
672.3716	0.031050
673.0652	0.030734
673.7589	0.024575
674.4527	0.025566
675.1466	0.024490
675.8406	0.022550
676.5347	0.022149
677.2288	0.020293
677.9231	0.025228
678.6174	0.026937
679.3119	0.028181
680.0064	0.030080
680.7010	0.031303
681.3957	0.030649
682.0905	0.027591
682.7854	0.025967
683.4803	0.027253
684.1754	0.027949
684.8705	0.032505
685.5658	0.040014
686.2611	0.039677
686.9565	0.035796
687.6520	0.039192
688.3476	0.033729
689.0433	0.031261
689.7390	0.030839
690.4349	0.027549
691.1308	0.031620
691.8269	0.030945
692.5230	0.031852
693.2192	0.032168
693.9155	0.033180
694.6119	0.027464
695.3083	0.031177
696.0049	0.026494
696.7016	0.030586
697.3983	0.035395
698.0951	0.032189
698.7920	0.032210
699.4890	0.028645
700.1861	0.026831
700.8833	0.025692
701.5806	0.024617
702.2779	0.024532
702.9753	0.026325
703.6729	0.024406
704.3705	0.023288
705.0682	0.020799
705.7660	0.021938
706.4638	0.024216
707.1618	0.030966
707.8599	0.034404
708.5580	0.031915
709.2562	0.030923
709.9545	0.029215
710.6529	0.028877
711.3514	0.025524
712.0500	0.026220
712.7486	0.024448
713.4474	0.027802
714.1462	0.029574
714.8451	0.031894
715.5441	0.029384
716.2432	0.025418
716.9424	0.024849
717.6416	0.021938
718.3410	0.023710
719.0404	0.026557
719.7399	0.027021
720.4395	0.025756
721.1392	0.025903
721.8390	0.026009
722.5388	0.025629
723.2388	0.023077
723.9388	0.025819
724.6389	0.021179
725.3391	0.026621
726.0394	0.027717
726.7398	0.027064
727.4403	0.027612
728.1408	0.028983
728.8414	0.029067
729.5421	0.031767
730.2429	0.031915
730.9438	0.035965
731.6448	0.035416
732.3458	0.034594
733.0470	0.037293
733.7482	0.039656
734.4495	0.044739
735.1509	0.038812
735.8524	0.040753
736.5539	0.041238
737.2556	0.043284
737.9573	0.037420
738.6591	0.034509
739.3610	0.039403
740.0630	0.036956
740.7651	0.034931
741.4672	0.029194
742.1695	0.029531
742.8718	0.030839
743.5742	0.027549
744.2767	0.025882
744.9792	0.025566
745.6819	0.023604
746.3846	0.024047
747.0874	0.024996
747.7903	0.027633
748.4933	0.023520
749.1964	0.024975
749.8995	0.028371
750.6028	0.035690
751.3061	0.033159
752.0095	0.032653
752.7130	0.031282
753.4166	0.032526
754.1202	0.037694
754.8239	0.035374
755.5278	0.036829
756.2317	0.039592
756.9356	0.044191
757.6397	0.052164
758.3438	0.048030
759.0481	0.046405
759.7524	0.052016
760.4568	0.055370
761.1613	0.051868
761.8658	0.045857
762.5705	0.040225
763.2752	0.043178
763.9800	0.040162
764.6849	0.050455
765.3898	0.047059
766.0949	0.044064
766.8000	0.035121
767.5052	0.031092
768.2105	0.036492
768.9159	0.041259
769.6214	0.038664
770.3269	0.037061
771.0325	0.040795
771.7382	0.038833
772.4440	0.035332
773.1499	0.034488
773.8558	0.033265
774.5618	0.029637
775.2679	0.024532
775.9741	0.023182
776.6804	0.020968
777.3868	0.019955
778.0932	0.020356
778.7997	0.023077
779.5063	0.027274
780.2130	0.023119
780.9197	0.026304
781.6265	0.030945
782.3335	0.030248
783.0405	0.030734
783.7475	0.032105
784.4547	0.026536
785.1619	0.024807
785.8692	0.025460
786.5766	0.022191
787.2841	0.024954
787.9917	0.026199
788.6993	0.026199
789.4070	0.025840
790.1148	0.023773
790.8227	0.022950
791.5306	0.020124
792.2387	0.021959
792.9468	0.019027
793.6550	0.020230
794.3632	0.026051
795.0716	0.027169
795.7800	0.025587
796.4885	0.018289
797.1971	0.018394
797.9058	0.019955
798.6145	0.020293
799.3233	0.020799
800.0322	0.017909
800.7412	0.017698
801.4503	0.015442
802.1594	0.013691
802.8686	0.015948
803.5779	0.015062
804.2873	0.016180
804.9968	0.016517
805.7063	0.015547
806.4159	0.018416
807.1256	0.018184
807.8354	0.020525
808.5452	0.020293
809.2551	0.019196
809.9651	0.017804
810.6752	0.015589
811.3853	0.012953
812.0956	0.013311
812.8059	0.013058
813.5163	0.013838
814.2267	0.017635
814.9373	0.014155
815.6479	0.012362
816.3586	0.011582
817.0694	0.013775
817.7802	0.012025
818.4912	0.013037
819.2022	0.010654
819.9133	0.009957
820.6244	0.013121
821.3357	0.012531
822.0470	0.012657
822.7584	0.011286
823.4698	0.009135
824.1814	0.008017
824.8930	0.011160
825.6047	0.011096
826.3165	0.011350
827.0283	0.011687
827.7402	0.010886
828.4522	0.010843
829.1643	0.011919
829.8765	0.009599
830.5887	0.008523
831.3010	0.008186
832.0134	0.006203
832.7259	0.009325
833.4384	0.007869
834.1510	0.007954
834.8637	0.009515
835.5765	0.008671
836.2893	0.008228
837.0022	0.006625
837.7152	0.004326
838.4283	0.006604
839.1414	0.004516
839.8546	0.006266
840.5679	0.006540
841.2813	0.005528
841.9947	0.004579
842.7082	0.004790
843.4218	0.005233
844.1355	0.005296
844.8492	0.005169
845.5631	0.004874
846.2770	0.005865
846.9909	0.005570
847.7050	0.005127
848.4191	0.004494
849.1333	0.004157
849.8475	0.004473
850.5619	0.002828
851.2763	0.004895
851.9908	0.004726
852.7053	0.007658
853.4200	0.011666
854.1347	0.011919
854.8495	0.013058
855.5643	0.010147
856.2792	0.010485
856.9942	0.010527
857.7093	0.008502
858.4245	0.007933
859.1397	0.007300
859.8550	0.007173
860.5704	0.007258
861.2858	0.004516
862.0013	0.006098
862.7169	0.004073
863.4326	0.005992
864.1483	0.006456
864.8642	0.003946
865.5800	0.004389
866.2960	0.003166
867.0120	0.003820
867.7281	0.004600
868.4443	0.005001
869.1606	0.005064
869.8769	0.003820
870.5933	0.003820
871.3097	0.004600
872.0263	0.004916
872.7429	0.004326
873.4596	0.005465
874.1763	0.005064
874.8932	0.005676
875.6101	0.005486
876.3270	0.004178
877.0441	0.004199
877.7612	0.005655
878.4784	0.005359
879.1957	0.006098
879.9130	0.007110
880.6304	0.007469
881.3479	0.006583
882.0654	0.004980
882.7831	0.005697
883.5007	0.006730
884.2185	0.004642
884.9363	0.006098
885.6542	0.006245
886.3722	0.006730
887.0903	0.005549
887.8084	0.004009
888.5266	0.003292
889.2448	0.004579
889.9632	0.003524
890.6816	0.004431
891.4001	0.004052
892.1186	0.004642
892.8372	0.003187
893.5559	0.004663
894.2747	0.002765
894.9935	0.002090
895.7124	0.006034
896.4314	0.004136
897.1504	0.004621
897.8695	0.003904
898.5887	0.004452
899.3079	0.004537
900.0272	0.003166
900.7466	0.003145
901.4661	0.004431
902.1856	0.003018
902.9052	0.003440
903.6249	0.004115
904.3446	0.004157
905.0644	0.003250
905.7843	0.004410
906.5043	0.004790
907.2243	0.004494
907.9444	0.002301
908.6645	0.003250
909.3847	0.003503
910.1050	0.002470
910.8254	0.003166
911.5458	0.003461
912.2663	0.003946
912.9869	0.003672
913.7075	0.003883
914.4283	0.001710
915.1490	0.002702
915.8699	0.002681
916.5908	0.002976
917.3118	0.003145
918.0328	0.003798
918.7539	0.003883
919.4751	0.004621
920.1964	0.003060
920.9177	0.003672
921.6391	0.002111
922.3606	0.003651
923.0821	0.003355
923.8037	0.001858
924.5254	0.003545
925.2471	0.002596
925.9689	0.001879
926.6908	0.002638
927.4127	0.002491
928.1347	0.000740
928.8568	0.001942
929.5789	0.002828
930.3011	0.000719
931.0234	0.004157
931.7457	0.001879
932.4681	0.001605
933.1906	0.002216
933.9131	0.003334
934.6358	0.001288
935.3584	-0.000019
936.0812	0.001120
936.8040	0.001352
937.5269	0.000656
938.2498	0.000761
938.9728	0.001774
939.6959	0.000107
940.4190	0.001099
941.1422	0.001963
941.8655	0.002238
942.5889	0.002195
943.3123	0.001120
944.0357	0.000487
944.7593	0.001647
945.4829	0.001584
946.2066	0.000930
946.9303	0.000192
947.6541	0.000445
948.3780	0.000803
949.1019	0.000656
949.8259	0.000297
950.5500	0.000824
951.2741	0.000592
951.9983	0.002216
952.7226	0.001288
953.4469	0.001120
954.1713	0.001668
954.8958	0.001457
955.6203	0.000761
956.3449	0.000993
957.0696	0.000550
957.7943	-0.000188
958.5191	0.001331
959.2439	0.002385
959.9688	0.001605
960.6938	0.000403
961.4189	0.000550
962.1440	-0.000146
962.8692	0.001141
963.5944	-0.000019
964.3197	0.000656
965.0451	0.001331
965.7705	-0.000336
966.4960	0.000677
967.2216	-0.000125
967.9472	0.000824
968.6729	0.000719
969.3987	0.001478
970.1245	0.002596
970.8504	0.002301
971.5763	0.001394
972.3023	0.000318
973.0284	0.000234
973.7545	0.001394
974.4807	0.000466
975.2070	0.000824
975.9333	0.001584
976.6597	0.002195
977.3862	0.001499
978.1127	0.001014
978.8393	0.000086
979.5659	0.002385
980.2926	0.000128
981.0194	0.002343
981.7462	0.001056
982.4731	0.000993
983.2001	0.000107
983.9271	0.000381
984.6542	-0.000040
985.3814	0.000740
986.1086	-0.000230
986.8358	0.001035
987.5632	0.000297
988.2906	0.000023
989.0180	0.001120
989.7456	0.000909
990.4732	0.001267
991.2008	0.000824
991.9285	0.000213
992.6563	0.000613
993.3841	0.000170
994.1120	0.001246
994.8400	-0.000062
995.5680	0.000656
996.2961	0.000381
997.0242	0.001120
997.7524	-0.000610
998.4807	0.000086
999.2090	-0.000019
999.9374	0.000445
1000.67	0.001141
1001.39	0.001984
1002.12	-0.000926
1002.85	0.000002
1003.58	0.000170
1004.31	0.000023
1005.04	0.001879
1005.77	0.000782
1006.5	-0.000125
1007.22	0.001900
1007.95	-0.000272
1008.68	-0.000019
1009.41	0.001752
1010.14	0.001014
1010.87	0.000719
1011.6	-0.000863
1012.33	0.000445
1013.06	0.000571
1013.79	0.001373
1014.52	-0.000462
1015.25	-0.000062
1015.98	0.000002
1016.71	0.000381
1017.44	0.000592
1018.17	0.000888
1018.9	0.000424
1019.63	0.000529
1020.36	-0.000673
1021.09	0.000909
1021.82	-0.000694
1022.55	-0.000146
1023.03	-0.000589