File: Auto_Polymerization/Data/UV_VIS_Spectra/MRG-061-F5_spectra_while_stopped_with_alu_foil/spectrum_2025-06-20_09-52-42.txt
# Wavelength (nm)	Intensity (a.u.)
197.7802	0.000137
198.3922	0.000411
199.0044	0.002458
199.6168	-0.000011
200.2292	-0.000285
200.8418	-0.000432
201.4546	0.001888
202.0674	-0.000306
202.6805	0.000707
203.2936	-0.000728
203.9069	0.000686
204.5203	-0.000011
205.1338	-0.000390
205.7475	0.000095
206.3614	0.000369
206.9753	-0.001340
207.5894	0.000074
208.2036	0.000770
208.8180	-0.000285
209.4325	-0.000306
210.0471	-0.000812
210.6618	0.000432
211.2767	0.000854
211.8918	0.000770
212.5069	-0.000306
213.1222	0.000243
213.7376	0.000580
214.3532	-0.000095
214.9689	0.000264
215.5847	0.001466
216.2007	0.000601
216.8168	0.001213
217.4330	0.000643
218.0494	0.001466
218.6659	0.000981
219.2825	-0.001150
219.8992	-0.000601
220.5161	-0.000243
221.1332	0.002036
221.7503	0.000833
222.3676	0.000032
222.9850	0.000833
223.6026	0.001846
224.2203	-0.000411
224.8381	-0.000496
225.4561	0.001276
226.0742	0.000770
226.6924	0.000622
227.3107	0.001825
227.9292	-0.000749
228.5478	0.000369
229.1666	-0.000285
229.7855	-0.000686
230.4045	-0.000517
231.0236	0.000011
231.6429	0.000179
232.2623	-0.000200
232.8818	-0.000791
233.5015	0.000643
234.1213	-0.000264
234.7413	0.000116
235.3613	0.000812
235.9815	0.000032
236.6018	-0.000833
237.2223	-0.000243
237.8429	-0.000369
238.4636	-0.000074
239.0845	0.000643
239.7055	0.002120
240.3266	0.000643
240.9478	0.000432
241.5692	-0.000939
242.1907	0.000137
242.8124	0.000454
243.4341	0.000981
244.0560	-0.000285
244.6781	-0.000707
245.3002	0.000728
245.9225	0.000095
246.5449	0.001508
247.1675	-0.000074
247.7902	0.000053
248.4130	-0.000918
249.0359	-0.000032
249.6590	-0.001150
250.2822	0.000200
250.9056	0.002057
251.5290	0.002141
252.1526	0.000833
252.7763	0.000580
253.4002	0.000622
254.0242	0.000137
254.6483	0.000306
255.2725	-0.001129
255.8969	0.002436
256.5214	-0.000011
257.1460	0.001044
257.7708	-0.000559
258.3957	0.000812
259.0207	0.001023
259.6459	0.001255
260.2711	-0.000643
260.8965	-0.000348
261.5221	-0.000875
262.1477	0.000833
262.7735	-0.000032
263.3995	-0.000306
264.0255	-0.000854
264.6517	0.000432
265.2780	0.000327
265.9044	0.002162
266.5310	-0.000095
267.1577	0.000749
267.7845	0.000306
268.4114	0.001572
269.0385	-0.000749
269.6657	0.000643
270.2931	0.000285
270.9205	0.001340
271.5481	-0.000559
272.1758	0.000369
272.8037	0.001930
273.4316	-0.000032
274.0597	-0.000791
274.6880	0.000074
275.3163	0.000327
275.9448	0.001719
276.5734	-0.000158
277.2022	0.000538
277.8310	0.000454
278.4600	0.001297
279.0891	-0.000601
279.7184	0.001213
280.3477	-0.000032
280.9772	0.000032
281.6069	-0.001614
282.2366	0.000369
282.8665	-0.000538
283.4965	0.001614
284.1266	-0.000179
284.7569	0.001107
285.3873	0.000179
286.0178	0.001361
286.6484	0.000960
287.2792	-0.000559
287.9101	0.000918
288.5411	0.000960
289.1723	0.000897
289.8035	0.000475
290.4349	0.000875
291.0665	-0.000918
291.6981	0.000116
292.3299	0.000032
292.9618	0.000116
293.5938	-0.000770
294.2260	-0.000707
294.8582	0.000454
295.4906	-0.000306
296.1232	0.001192
296.7558	0.000707
297.3886	0.001593
298.0215	0.000601
298.6545	0.001107
299.2877	0.000622
299.9210	0.000327
300.5544	-0.000243
301.1879	0.000897
301.8215	0.000538
302.4553	0.000749
303.0892	0.001761
303.7233	0.001761
304.3574	0.000095
304.9917	0.000200
305.6261	0.000327
306.2606	0.001318
306.8953	0.001951
307.5301	0.001297
308.1650	-0.000601
308.8000	0.001740
309.4351	0.000475
310.0704	0.000939
310.7058	-0.000960
311.3413	0.001993
311.9770	0.000664
312.6127	0.000960
313.2486	0.000095
313.8846	0.000053
314.5208	0.000580
315.1570	0.000074
315.7934	-0.000116
316.4299	0.001213
317.0666	-0.000243
317.7033	0.000601
318.3402	-0.000981
318.9772	0.000116
319.6143	0.000095
320.2516	0.001107
320.8890	-0.000095
321.5265	0.000601
322.1641	0.000306
322.8018	0.001002
323.4397	-0.000749
324.0777	0.000622
324.7158	0.000011
325.3540	0.001086
325.9924	-0.000749
326.6308	-0.000179
327.2694	0.000664
327.9082	0.000918
328.5470	0.000454
329.1860	0.001698
329.8251	-0.000707
330.4643	0.001846
331.1036	-0.000981
331.7431	0.001213
332.3826	0.001002
333.0223	-0.000960
333.6622	0.001445
334.3021	-0.000517
334.9422	-0.000918
335.5823	0.000643
336.2227	0.000116
336.8631	0.001023
337.5036	0.000939
338.1443	0.001340
338.7851	-0.000686
339.4260	0.002500
340.0670	0.001234
340.7082	0.001065
341.3495	0.000200
341.9909	0.000011
342.6324	-0.000032
343.2740	0.000264
343.9158	0.000770
344.5577	0.001171
345.1997	-0.000053
345.8418	0.001972
346.4840	-0.001276
347.1264	0.000095
347.7689	-0.000517
348.4115	0.002204
349.0542	-0.000053
349.6971	0.000158
350.3400	-0.000116
350.9831	0.000411
351.6263	0.000369
352.2696	-0.000011
352.9131	-0.000221
353.5566	0.000749
354.2003	0.000411
354.8441	0.000960
355.4881	0.000749
356.1321	0.000496
356.7763	0.000918
357.4206	0.000854
358.0650	0.000411
358.7095	0.001044
359.3541	0.000074
359.9989	0.000897
360.6438	-0.001086
361.2888	0.001023
361.9339	0.001318
362.5791	-0.000348
363.2245	0.000833
363.8699	0.000137
364.5155	-0.000580
365.1612	0.001213
365.8071	0.000306
366.4530	0.001192
367.0991	0.000918
367.7453	0.001255
368.3916	-0.000285
369.0380	0.000686
369.6845	0.000221
370.3312	0.000833
370.9780	-0.000854
371.6249	0.000897
372.2719	-0.000011
372.9190	0.000686
373.5663	-0.000559
374.2136	0.001150
374.8611	0.000348
375.5087	0.000749
376.1564	-0.000264
376.8043	0.001719
377.4522	0.000875
378.1003	0.001572
378.7485	0.000517
379.3968	0.000074
380.0452	0.000981
380.6938	0.001297
381.3424	-0.001318
381.9912	0.000348
382.6401	0.000622
383.2891	0.000496
383.9382	-0.000221
384.5875	-0.000369
385.2368	0.001213
385.8863	0.000285
386.5359	0.001255
387.1856	0.001487
387.8355	0.000812
388.4854	0.000939
389.1355	0.000032
389.7856	0.001086
390.4359	0.000622
391.0863	0.003365
391.7369	0.000137
392.3875	0.002310
393.0383	0.001677
393.6891	0.002204
394.3401	0.002837
394.9912	0.002183
395.6425	0.002795
396.2938	0.003913
396.9453	0.003238
397.5968	0.003428
398.2485	0.004419
398.9003	0.005432
399.5522	0.004989
400.2043	0.004947
400.8564	0.005559
401.5087	0.005094
402.1610	0.004841
402.8135	0.006318
403.4661	0.005580
404.1189	0.007309
404.7717	0.007499
405.4246	0.008195
406.0777	0.007288
406.7309	0.008322
407.3842	0.008892
408.0376	0.008533
408.6911	0.009440
409.3448	0.008892
409.9985	0.009883
410.6524	0.009440
411.3064	0.009546
411.9605	0.009018
412.6147	0.011760
413.2690	0.011718
413.9234	0.011381
414.5780	0.011655
415.2326	0.012309
415.8874	0.012182
416.5423	0.013195
417.1973	0.013532
417.8524	0.012330
418.5077	0.013870
419.1630	0.012879
419.8185	0.013322
420.4741	0.015157
421.1298	0.016781
421.7856	0.018933
422.4415	0.016844
423.0975	0.016254
423.7536	0.016380
424.4099	0.016823
425.0663	0.015431
425.7228	0.018595
426.3793	0.017498
427.0361	0.014967
427.6929	0.017435
428.3498	0.016718
429.0068	0.014208
429.6640	0.019334
430.3213	0.019924
430.9787	0.019924
431.6362	0.018701
432.2938	0.017646
432.9515	0.013406
433.6093	0.018068
434.2673	0.020283
434.9253	0.017435
435.5835	0.018384
436.2418	0.018321
436.9001	0.018532
437.5586	0.018026
438.2173	0.017857
438.8760	0.020726
439.5348	0.019291
440.1938	0.018553
440.8528	0.018068
441.5120	0.022772
442.1713	0.022287
442.8307	0.020199
443.4902	0.021844
444.1498	0.021907
444.8095	0.020135
445.4694	0.021127
446.1293	0.019988
446.7894	0.021148
447.4496	0.020409
448.1098	0.019291
448.7702	0.020093
449.4307	0.019165
450.0914	0.017625
450.7521	0.018701
451.4129	0.018258
452.0739	0.017751
452.7349	0.017245
453.3961	0.015979
454.0574	0.014376
454.7188	0.013406
455.3803	0.015452
456.0419	0.015473
456.7036	0.013427
457.3654	0.014883
458.0274	0.014629
458.6894	0.015326
459.3516	0.015515
460.0138	0.013596
460.6762	0.012942
461.3387	0.012668
462.0013	0.011908
462.6640	0.010748
463.3268	0.012035
463.9897	0.012752
464.6528	0.013364
465.3159	0.011782
465.9792	0.011993
466.6425	0.010537
467.3060	0.010853
467.9696	0.009546
468.6333	0.008364
469.2970	0.008554
469.9610	0.009440
470.6250	0.008048
471.2891	0.007225
471.9533	0.005305
472.6177	0.007478
473.2821	0.007183
473.9467	0.008828
474.6113	0.006951
475.2761	0.008575
475.9410	0.007563
476.6060	0.007056
477.2711	0.005833
477.9363	0.007288
478.6016	0.005917
479.2670	0.006761
479.9325	0.007584
480.5982	0.004926
481.2639	0.005474
481.9298	0.006993
482.5957	0.005516
483.2618	0.003976
483.9280	0.003365
484.5943	0.005474
485.2606	0.004061
485.9271	0.015136
486.5937	0.011676
487.2605	0.006845
487.9273	0.003597
488.5942	0.004736
489.2612	0.003976
489.9284	0.004757
490.5956	0.003259
491.2630	0.003618
491.9304	0.003322
492.5980	0.004947
493.2657	0.002605
493.9334	0.001761
494.6013	0.003555
495.2693	0.004377
495.9374	0.002605
496.6056	0.003428
497.2739	0.003365
497.9423	0.003048
498.6109	0.003322
499.2795	0.003006
499.9482	0.001846
500.6171	0.002690
501.2860	0.001867
501.9551	0.003470
502.6242	0.003322
503.2935	0.003196
503.9628	0.003027
504.6323	0.002774
505.3019	0.002036
505.9716	0.002647
506.6414	0.003428
507.3113	0.002352
507.9813	0.002479
508.6514	0.003407
509.3216	0.001930
509.9919	0.002901
510.6623	0.000264
511.3329	0.001909
512.0035	0.003133
512.6742	0.000875
513.3451	0.001487
514.0160	0.003702
514.6871	0.001192
515.3582	0.001993
516.0295	0.002479
516.7008	0.003090
517.3723	0.002204
518.0439	0.003808
518.7155	0.003723
519.3873	0.003555
520.0592	0.003154
520.7312	0.000158
521.4033	0.003449
522.0755	0.002078
522.7478	0.004293
523.4202	0.003090
524.0927	0.003112
524.7653	0.002858
525.4380	0.003555
526.1108	0.002795
526.7837	0.004799
527.4568	0.002647
528.1299	0.003238
528.8031	0.003470
529.4765	0.003618
530.1499	0.003386
530.8234	0.005643
531.4971	0.003112
532.1708	0.004293
532.8447	0.003892
533.5186	0.005390
534.1927	0.006761
534.8668	0.005390
535.5411	0.006255
536.2155	0.006592
536.8899	0.005305
537.5645	0.007837
538.2392	0.006402
538.9139	0.007520
539.5888	0.007816
540.2638	0.009166
540.9389	0.007668
541.6140	0.009651
542.2893	0.007499
542.9647	0.010664
543.6402	0.009313
544.3158	0.010664
544.9915	0.012752
545.6673	0.010938
546.3432	0.011845
547.0192	0.013195
547.6953	0.014629
548.3715	0.016676
549.0478	0.013448
549.7242	0.015262
550.4007	0.015262
551.0773	0.013596
551.7540	0.013849
552.4308	0.017456
553.1077	0.014946
553.7847	0.019566
554.4618	0.018574
555.1390	0.018701
555.8163	0.018680
556.4937	0.020979
557.1712	0.018511
557.8488	0.022013
558.5266	0.020620
559.2044	0.020684
559.8823	0.020874
560.5603	0.025029
561.2384	0.028404
561.9166	0.028151
562.5949	0.026527
563.2733	0.026590
563.9519	0.029860
564.6305	0.029944
565.3092	0.033235
565.9880	0.033066
566.6669	0.032834
567.3459	0.041104
568.0250	0.044711
568.7043	0.051145
569.3836	0.061081
570.0630	0.078611
570.7425	0.081121
571.4221	0.097723
572.1018	0.109283
572.7816	0.095128
573.4615	0.109663
574.1415	0.125610
574.8216	0.137656
575.5018	0.135694
576.1821	0.125885
576.8626	0.142128
577.5431	0.154342
578.2237	0.192925
578.9044	0.160248
579.5851	0.156536
580.2660	0.168328
580.9470	0.160565
581.6281	0.255429
582.3093	0.243194
582.9906	0.189845
583.6720	0.156430
584.3535	0.157000
585.0351	0.176998
585.7167	0.187124
586.3985	0.163434
587.0804	0.170733
587.7624	0.184107
588.4445	0.160523
589.1266	0.140989
589.8089	0.129471
590.4913	0.117826
591.1737	0.106098
591.8563	0.104136
592.5389	0.123290
593.2217	0.160101
593.9046	0.152422
594.5875	0.138267
595.2705	0.158498
595.9537	0.136432
596.6369	0.114979
597.3203	0.120294
598.0037	0.115928
598.6872	0.121391
599.3709	0.145714
600.0546	0.146178
600.7384	0.147802
601.4223	0.145841
602.1064	0.132129
602.7905	0.134344
603.4747	0.152971
604.1590	0.140841
604.8434	0.124640
605.5279	0.131876
606.2125	0.138120
606.8972	0.124535
607.5819	0.128079
608.2668	0.122045
608.9518	0.113671
609.6369	0.104600
610.3220	0.119219
611.0073	0.112827
611.6927	0.107110
612.3781	0.105212
613.0637	0.102153
613.7493	0.102300
614.4351	0.101583
615.1209	0.098904
615.8068	0.102743
616.4929	0.093546
617.1790	0.090740
617.8652	0.088146
618.5515	0.080741
619.2379	0.073485
619.9244	0.075130
620.6110	0.076143
621.2977	0.060617
621.9845	0.067726
622.6714	0.067915
623.3584	0.075552
624.0454	0.071502
624.7326	0.073147
625.4199	0.067683
626.1072	0.062494
626.7947	0.056820
627.4822	0.056250
628.1698	0.053233
628.8576	0.047242
629.5454	0.052221
630.2333	0.049246
630.9213	0.046483
631.6094	0.042327
632.2976	0.041884
632.9859	0.036800
633.6743	0.035281
634.3628	0.035851
635.0514	0.032539
635.7400	0.034965
636.4288	0.037560
637.1177	0.035957
637.8066	0.033151
638.4957	0.036146
639.1848	0.033742
639.8740	0.030517
640.5633	0.029292
641.2528	0.028407
641.9423	0.025621
642.6319	0.025424
643.3216	0.023854
644.0113	0.026038
644.7012	0.024457
645.3912	0.023466
646.0812	0.021949
646.7714	0.020442
647.4616	0.019640
648.1520	0.023841
648.8424	0.026364
649.5329	0.028583
650.2236	0.025454
650.9143	0.025045
651.6051	0.023867
652.2960	0.026967
652.9870	0.025737
653.6780	0.026216
654.3692	0.027099
655.0605	0.046337
655.7518	0.787143
656.4433	1.000000
657.1348	0.706623
657.8264	0.427069
658.5181	0.317027
659.2099	0.235779
659.9018	0.058113
660.5938	0.023207
661.2859	0.017346
661.9781	0.018206
662.6704	0.018258
663.3627	0.018453
664.0552	0.016669
664.7477	0.017506
665.4403	0.020392
666.1330	0.020177
666.8259	0.018042
667.5188	0.018135
668.2117	0.017755
668.9048	0.016929
669.5980	0.018131
670.2913	0.017076
670.9846	0.018300
671.6781	0.023996
672.3716	0.027919
673.0652	0.027666
673.7589	0.024987
674.4527	0.020705
675.1466	0.021338
675.8406	0.021865
676.5347	0.021042
677.2288	0.018764
677.9231	0.023110
678.6174	0.024333
679.3119	0.028615
680.0064	0.031611
680.7010	0.028869
681.3957	0.030577
682.0905	0.028489
682.7854	0.025198
683.4803	0.026569
684.1754	0.027603
684.8705	0.032117
685.5658	0.036273
686.2611	0.036505
686.9565	0.035556
687.6520	0.036674
688.3476	0.033066
689.0433	0.027624
689.7390	0.028215
690.4349	0.026991
691.1308	0.030134
691.8269	0.031801
692.5230	0.033636
693.2192	0.031674
693.9155	0.030894
694.6119	0.027877
695.3083	0.028341
696.0049	0.025346
696.7016	0.028383
697.3983	0.031084
698.0951	0.031105
698.7920	0.032518
699.4890	0.028383
700.1861	0.025008
700.8833	0.025346
701.5806	0.024038
702.2779	0.023785
702.9753	0.023996
703.6729	0.023089
704.3705	0.024143
705.0682	0.020135
705.7660	0.020494
706.4638	0.024523
707.1618	0.030219
707.8599	0.030535
708.5580	0.029755
709.2562	0.027075
709.9545	0.027518
710.6529	0.029396
711.3514	0.024439
712.0500	0.025050
712.7486	0.024439
713.4474	0.026232
714.1462	0.029776
714.8451	0.025683
715.5441	0.030240
716.2432	0.024797
716.9424	0.024207
717.6416	0.023299
718.3410	0.023215
719.0404	0.024797
719.7399	0.024354
720.4395	0.022856
721.1392	0.022856
721.8390	0.023278
722.5388	0.023067
723.2388	0.021738
723.9388	0.021738
724.6389	0.021781
725.3391	0.025135
726.0394	0.027434
726.7398	0.028805
727.4403	0.025472
728.1408	0.028531
728.8414	0.027455
729.5421	0.030029
730.2429	0.029037
730.9438	0.035134
731.6448	0.034796
732.3458	0.031548
733.0470	0.036020
733.7482	0.038066
734.4495	0.043994
735.1509	0.042011
735.8524	0.039796
736.5539	0.040597
737.2556	0.042032
737.9573	0.036146
738.6591	0.034564
739.3610	0.038446
740.0630	0.037496
740.7651	0.031674
741.4672	0.028172
742.1695	0.029058
742.8718	0.029122
743.5742	0.024439
744.2767	0.024207
744.9792	0.025536
745.6819	0.024101
746.3846	0.022688
747.0874	0.025831
747.7903	0.025346
748.4933	0.023426
749.1964	0.026063
749.8995	0.032771
750.6028	0.035450
751.3061	0.030788
752.0095	0.032096
752.7130	0.030577
753.4166	0.029860
754.1202	0.033784
754.8239	0.034817
755.5278	0.036357
756.2317	0.036948
756.9356	0.043783
757.6397	0.046863
758.3438	0.046905
759.0481	0.045091
759.7524	0.050955
760.4568	0.052073
761.1613	0.050850
761.8658	0.043023
762.5705	0.041357
763.2752	0.040956
763.9800	0.042580
764.6849	0.046293
765.3898	0.048171
766.0949	0.040977
766.8000	0.035809
767.5052	0.028278
768.2105	0.034691
768.9159	0.040851
769.6214	0.035830
770.3269	0.037560
771.0325	0.041420
771.7382	0.036062
772.4440	0.032750
773.1499	0.032096
773.8558	0.030725
774.5618	0.027160
775.2679	0.024671
775.9741	0.023890
776.6804	0.020684
777.3868	0.021633
778.0932	0.020494
778.7997	0.022181
779.5063	0.025831
780.2130	0.023700
780.9197	0.024565
781.6265	0.029944
782.3335	0.026822
783.0405	0.027961
783.7475	0.028742
784.4547	0.026506
785.1619	0.025029
785.8692	0.025683
786.5766	0.022371
787.2841	0.022540
787.9917	0.022646
788.6993	0.026654
789.4070	0.025683
790.1148	0.021970
790.8227	0.021084
791.5306	0.020409
792.2387	0.020009
792.9468	0.016697
793.6550	0.019017
794.3632	0.028447
795.0716	0.025451
795.7800	0.024987
796.4885	0.018637
797.1971	0.017372
797.9058	0.020409
798.6145	0.017857
799.3233	0.016802
800.0322	0.015431
800.7412	0.015431
801.4503	0.016064
802.1594	0.015600
802.8686	0.015347
803.5779	0.015642
804.2873	0.014840
804.9968	0.015558
805.7063	0.012984
806.4159	0.019671
807.1256	0.017604
807.8354	0.017330
808.5452	0.019629
809.2551	0.017688
809.9651	0.016465
810.6752	0.016633
811.3853	0.014418
812.0956	0.013786
812.8059	0.012309
813.5163	0.011317
814.2267	0.015790
814.9373	0.015199
815.6479	0.010727
816.3586	0.012077
817.0694	0.012900
817.7802	0.011613
818.4912	0.011402
819.2022	0.010431
819.9133	0.010431
820.6244	0.011803
821.3357	0.011170
822.0470	0.011191
822.7584	0.011043
823.4698	0.012056
824.1814	0.009714
824.8930	0.009398
825.6047	0.010157
826.3165	0.011043
827.0283	0.011254
827.7402	0.010579
828.4522	0.008385
829.1643	0.012014
829.8765	0.011170
830.5887	0.006550
831.3010	0.006149
832.0134	0.006972
832.7259	0.006888
833.4384	0.008006
834.1510	0.009166
834.8637	0.008892
835.5765	0.008322
836.2893	0.007689
837.0022	0.006529
837.7152	0.005980
838.4283	0.006086
839.1414	0.004019
839.8546	0.006234
840.5679	0.005453
841.2813	0.004905
841.9947	0.004736
842.7082	0.005390
843.4218	0.005369
844.1355	0.003660
844.8492	0.004588
845.5631	0.005727
846.2770	0.004251
846.9909	0.003765
847.7050	0.004757
848.4191	0.004968
849.1333	0.003491
849.8475	0.004715
850.5619	0.005769
851.2763	0.003702
851.9908	0.004208
852.7053	0.006149
853.4200	0.010917
854.1347	0.010980
854.8495	0.010221
855.5643	0.010896
856.2792	0.010178
856.9942	0.008470
857.7093	0.009967
858.4245	0.006487
859.1397	0.006698
859.8550	0.007204
860.5704	0.005495
861.2858	0.005980
862.0013	0.003597
862.7169	0.004483
863.4326	0.005179
864.1483	0.005559
864.8642	0.005664
865.5800	0.005179
866.2960	0.004715
867.0120	0.005685
867.7281	0.003512
868.4443	0.005052
869.1606	0.004778
869.8769	0.003787
870.5933	0.004082
871.3097	0.005179
872.0263	0.004989
872.7429	0.005073
873.4596	0.004525
874.1763	0.004694
874.8932	0.005010
875.6101	0.007183
876.3270	0.004799
877.0441	0.004525
877.7612	0.005305
878.4784	0.004483
879.1957	0.007035
879.9130	0.007394
880.6304	0.006613
881.3479	0.006655
882.0654	0.005516
882.7831	0.003955
883.5007	0.004968
884.2185	0.005706
884.9363	0.004398
885.6542	0.004968
886.3722	0.005580
887.0903	0.004884
887.8084	0.004630
888.5266	0.004082
889.2448	0.005411
889.9632	0.003175
890.6816	0.004082
891.4001	0.004799
892.1186	0.004208
892.8372	0.003787
893.5559	0.004293
894.2747	0.002985
894.9935	0.004483
895.7124	0.003618
896.4314	0.005242
897.1504	0.004208
897.8695	0.002901
898.5887	0.004124
899.3079	0.004124
900.0272	0.002436
900.7466	0.003470
901.4661	0.002732
902.1856	0.004525
902.9052	0.002837
903.6249	0.003069
904.3446	0.003913
905.0644	0.006023
905.7843	0.004968
906.5043	0.003259
907.2243	0.003322
907.9444	0.003576
908.6645	0.003470
909.3847	0.002626
910.1050	0.003069
910.8254	0.004208
911.5458	0.003217
912.2663	0.003850
912.9869	0.003217
913.7075	0.002943
914.4283	0.002036
915.1490	0.002879
915.8699	0.002943
916.5908	0.003365
917.3118	0.003006
918.0328	0.004546
918.7539	0.003365
919.4751	0.003660
920.1964	0.002690
920.9177	0.002247
921.6391	0.001382
922.3606	0.002415
923.0821	0.003217
923.8037	0.003681
924.5254	0.002183
925.2471	0.002310
925.9689	0.002099
926.6908	0.002626
927.4127	0.001888
928.1347	0.001340
928.8568	0.001930
929.5789	0.002922
930.3011	0.002099
931.0234	0.001107
931.7457	0.002436
932.4681	0.002985
933.1906	0.001635
933.9131	0.001993
934.6358	0.001783
935.3584	-0.000158
936.0812	0.000981
936.8040	0.002183
937.5269	0.000559
938.2498	0.001508
938.9728	0.001529
939.6959	0.000032
940.4190	0.000770
941.1422	0.001719
941.8655	0.002162
942.5889	0.001107
943.3123	0.001593
944.0357	0.000622
944.7593	0.001656
945.4829	0.000664
946.2066	0.001065
946.9303	0.003238
947.6541	0.001276
948.3780	-0.000074
949.1019	-0.000538
949.8259	0.002036
950.5500	0.001677
951.2741	0.001466
951.9983	0.001192
952.7226	0.001023
953.4469	0.000285
954.1713	0.000622
954.8958	0.000348
955.6203	0.001107
956.3449	0.000390
957.0696	0.001361
957.7943	0.001171
958.5191	0.001086
959.2439	0.000264
959.9688	0.000728
960.6938	0.001361
961.4189	0.000538
962.1440	0.001361
962.8692	0.002036
963.5944	0.001192
964.3197	-0.000285
965.0451	0.000601
965.7705	0.000454
966.4960	0.001107
967.2216	0.000496
967.9472	-0.000032
968.6729	-0.000327
969.3987	0.000432
970.1245	0.001276
970.8504	-0.000306
971.5763	0.000833
972.3023	0.000918
973.0284	0.001150
973.7545	0.001993
974.4807	0.000264
975.2070	0.001804
975.9333	0.001382
976.6597	0.001572
977.3862	0.000369
978.1127	0.000411
978.8393	0.001761
979.5659	0.002078
980.2926	0.000833
981.0194	0.000981
981.7462	0.000243
982.4731	0.000411
983.2001	0.001107
983.9271	0.000496
984.6542	0.002183
985.3814	0.000517
986.1086	-0.000411
986.8358	0.000918
987.5632	0.000221
988.2906	-0.000432
989.0180	-0.000285
989.7456	-0.000095
990.4732	0.001951
991.2008	0.000475
991.9285	0.000221
992.6563	0.000032
993.3841	0.001129
994.1120	0.001171
994.8400	0.001002
995.5680	0.001255
996.2961	0.000707
997.0242	0.000243
997.7524	0.001276
998.4807	-0.000116
999.2090	-0.000137
999.9374	0.001129
1000.67	0.000454
1001.39	-0.000116
1002.12	0.001318
1002.85	0.000390
1003.58	0.000221
1004.31	0.000664
1005.04	0.000981
1005.77	0.000728
1006.5	0.000306
1007.22	0.001993
1007.95	-0.000095
1008.68	0.000643
1009.41	0.000032
1010.14	0.000496
1010.87	0.000559
1011.6	0.000011
1012.33	0.000432
1013.06	0.000053
1013.79	0.000707
1014.52	-0.000348
1015.25	0.000221
1015.98	0.001529
1016.71	0.001213
1017.44	0.001150
1018.17	0.000074
1018.9	-0.001192
1019.63	-0.000179
1020.36	-0.001044
1021.09	0.001171
1021.82	-0.000411
1022.55	0.000707
1023.03	0.000833