File: Auto_Polymerization/Data/UV_VIS_Spectra/MRG-061-F5_spectra_while_stopped_with_alu_foil/spectrum_2025-06-20_10-28-31_absorbance.txt
# Wavelength	Absorbance
197.78 0.954243
198.392 2.682145
199.004 -0.250826
199.617 2.768638
200.229 -0.202625
200.842 2.902003
201.455 0.449305
202.067 2.760422
202.68 0.723566
203.294 -0.110444
203.907 -0.144762
204.52 0.340324
205.134 0.088162
205.748 2.682145
206.361 -2.967548
206.975 -0.445106
207.589 0.000000
208.204 3.152288
208.818 -0.654905
209.433 -0.007451
210.047 -0.082163
210.662 3.055378
211.277 -0.179833
211.892 2.480007
212.507 0.543265
213.122 1.243038
213.738 2.985426
214.353 0.000000
214.969 2.896526
215.585 2.846955
216.201 1.006839
216.817 2.833784
217.433 0.035499
218.049 0.000000
218.666 3.186674
219.282 2.960946
219.899 -0.047910
220.516 -2.555094
221.133 2.902003
221.75 3.183555
222.368 0.266880
222.985 0.000000
223.603 -0.335091
224.22 0.611225
224.838 2.890421
225.456 0.549409
226.074 -0.462712
226.692 0.000000
227.311 0.407784
227.929 0.887365
228.548 0.140679
229.167 0.000000
229.786 2.791691
230.405 -1.023431
231.024 2.890421
231.643 0.315381
232.262 3.280123
232.882 2.599883
233.501 -0.285518
234.121 0.000000
234.741 3.097604
235.361 0.418393
235.982 -0.680993
236.602 0.000000
237.222 0.828392
237.843 -1.029555
238.464 1.038027
239.084 0.000000
239.706 -0.112422
240.327 -0.476186
240.948 2.990339
241.569 -0.271717
242.191 0.249219
242.812 -0.327689
243.434 -0.166982
244.056 0.000000
244.678 3.082426
245.3 -0.443469
245.923 3.026125
246.545 1.073980
247.167 3.215373
247.79 -1.070302
248.413 -0.064277
249.036 -0.180254
249.659 0.964681
250.282 3.189490
250.906 1.157788
251.529 2.008600
252.153 3.289589
252.776 -1.090752
253.4 0.212369
254.024 2.872739
254.648 2.769377
255.273 3.097604
255.897 0.258607
256.521 2.827369
257.146 -0.185779
257.771 -2.829304
258.396 0.156443
259.021 1.101845
259.646 3.198382
260.271 0.997927
260.897 3.252853
261.522 0.672880
262.148 2.989895
262.774 0.541923
263.399 0.134208
264.026 2.396199
264.652 0.993801
265.278 2.990339
265.904 0.371068
266.531 2.294466
267.158 2.884795
267.784 2.550228
268.411 0.192299
269.038 2.123852
269.666 2.965672
270.293 0.000000
270.921 2.833784
271.548 -0.295254
272.176 0.448305
272.804 1.097323
273.432 3.165244
274.06 0.842157
274.688 0.060030
275.316 0.253975
275.945 0.226100
276.573 -0.002503
277.202 1.122996
277.831 3.118595
278.46 0.289104
279.089 2.691965
279.718 3.272770
280.348 2.632457
280.977 0.371097
281.607 -3.328583
282.237 2.935003
282.866 1.469471
283.497 1.407350
284.127 0.845098
284.757 0.196412
285.387 0.000000
286.018 0.307026
286.648 0.273999
287.279 2.846955
287.91 -0.194401
288.541 3.352954
289.172 -3.102434
289.803 -3.095169
290.435 0.000000
291.067 1.221849
291.698 0.489885
292.33 3.042969
292.962 0.000000
293.594 -0.155692
294.226 -2.437751
294.858 3.074816
295.491 0.000000
296.123 1.323449
296.756 0.283876
297.389 2.935003
298.022 3.149219
298.654 0.853254
299.288 0.000000
299.921 0.478642
300.554 0.214283
301.188 0.780205
301.822 3.364739
302.455 3.097604
303.089 2.357935
303.723 2.924279
304.357 2.432969
304.992 2.784617
305.626 -0.598185
306.261 3.051153
306.895 -0.340212
307.53 0.116803
308.165 0.000000
308.8 3.034227
309.435 -0.104845
310.07 0.005520
310.706 3.168203
311.341 0.264634
311.977 0.227302
312.613 0.734084
313.249 3.332034
313.885 0.029836
314.521 0.189429
315.157 0.140924
315.793 -0.484142
316.43 3.525174
317.067 3.463445
317.703 3.336260
318.34 3.097604
318.977 0.568948
319.614 3.245019
320.252 0.410761
320.889 0.541104
321.526 0.476593
322.164 3.132580
322.802 0.271244
323.44 1.113151
324.078 0.448530
324.716 0.597751
325.354 0.587254
325.992 1.390430
326.631 1.257212
327.269 0.128948
327.908 0.905251
328.547 3.636688
329.186 3.564311
329.825 3.485153
330.464 0.578032
331.104 0.589452
331.743 3.583879
332.383 3.520876
333.022 0.500437
333.662 0.392951
334.302 3.740521
334.942 3.626956
335.582 0.517354
336.223 0.785424
336.863 0.889302
337.504 3.672098
338.144 1.677233
338.785 1.265455
339.426 3.712144
340.067 3.741388
340.708 1.720237
341.349 1.806987
341.991 1.001862
342.632 3.830460
343.274 3.825036
343.916 1.993681
344.558 3.886829
345.2 3.834484
345.842 1.224117
346.484 3.898615
347.126 3.906012
347.769 0.908598
348.411 1.710609
349.054 3.926085
349.697 3.921634
350.34 1.271351
350.983 1.116417
351.626 1.139340
352.27 1.116861
352.913 1.618103
353.557 0.938189
354.2 3.930898
354.844 1.036666
355.488 1.284988
356.132 0.959004
356.776 3.974327
357.421 1.321684
358.065 2.368685
358.709 1.290245
359.354 3.988202
359.999 3.957464
360.644 3.982497
361.289 1.337992
361.934 4.009323
362.579 4.062845
363.224 0.943425
363.87 1.800278
364.515 4.049102
365.161 1.090718
365.807 4.020403
366.453 4.118562
367.099 1.411104
367.745 1.074471
368.392 1.070038
369.038 4.150173
369.685 4.136974
370.331 0.988269
370.978 1.306586
371.625 1.318099
372.272 4.101128
372.919 0.915073
373.566 1.574853
374.214 2.064134
374.861 4.167317
375.509 1.410837
376.156 1.945702
376.804 1.609407
377.452 1.565666
378.1 1.266046
378.748 1.353922
379.397 4.318189
380.045 4.285760
380.694 1.699518
381.342 1.653441
381.991 1.326595
382.64 1.585678
383.289 1.665300
383.938 4.339471
384.587 1.609219
385.237 1.452157
385.886 1.144315
386.536 1.202592
387.186 2.191862
387.836 1.816573
388.485 1.133948
389.135 4.421044
389.786 4.411367
390.436 1.463394
391.086 1.466318
391.737 1.719308
392.387 2.027826
393.038 1.732450
393.689 2.369844
394.34 4.463997
394.991 1.269531
395.642 1.263873
396.294 1.094246
396.945 1.226721
397.597 1.096518
398.248 1.422796
398.9 1.238074
399.552 1.000965
400.204 1.071246
400.856 0.954204
401.509 0.967586
402.161 0.907050
402.813 0.855268
403.466 0.926352
404.119 0.835401
404.772 0.756551
405.425 0.830942
406.078 0.800213
406.731 0.770393
407.384 0.749101
408.038 0.776376
408.691 0.628127
409.345 0.775471
409.998 0.752385
410.652 0.693800
411.306 0.659881
411.961 0.693616
412.615 0.635741
413.269 0.712621
413.923 0.611155
414.578 0.695687
415.233 0.574957
415.887 0.574286
416.542 0.550734
417.197 0.596168
417.852 0.565633
418.508 0.514261
419.163 0.486393
419.818 0.477678
420.474 0.512007
421.13 0.452399
421.786 0.472050
422.442 0.488892
423.098 0.453503
423.754 0.487256
424.41 0.441936
425.066 0.491387
425.723 0.507252
426.379 0.489505
427.036 0.503409
427.693 0.439867
428.35 0.414111
429.007 0.441724
429.664 0.396630
430.321 0.460547
430.979 0.442044
431.636 0.423357
432.294 0.400455
432.952 0.471298
433.609 0.444690
434.267 0.426594
434.925 0.416657
435.584 0.444943
436.242 0.414602
436.9 0.411442
437.559 0.410309
438.217 0.396094
438.876 0.442485
439.535 0.450956
440.194 0.421327
440.853 0.435372
441.512 0.437554
442.171 0.438837
442.831 0.423954
443.49 0.428523
444.15 0.417634
444.81 0.428941
445.469 0.451253
446.129 0.443615
446.789 0.408002
447.45 0.448076
448.11 0.417027
448.77 0.436934
449.431 0.453413
450.091 0.461148
450.752 0.469903
451.413 0.467507
452.074 0.478250
452.735 0.462847
453.396 0.516688
454.057 0.525599
454.719 0.466240
455.38 0.559772
456.042 0.491828
456.704 0.515396
457.365 0.579586
458.027 0.495171
458.689 0.585683
459.352 0.580408
460.014 0.584765
460.676 0.561294
461.339 0.587289
462.001 0.541254
462.664 0.647706
463.327 0.640710
463.99 0.618718
464.653 0.668547
465.316 0.667671
465.979 0.642811
466.642 0.717192
467.306 0.683641
467.97 0.752923
468.633 0.711605
469.297 0.797160
469.961 0.617164
470.625 0.770962
471.289 0.893619
471.953 0.835661
472.618 0.797097
473.282 0.898442
473.947 0.830715
474.611 0.744660
475.276 0.844670
475.941 0.856136
476.606 0.825174
477.271 0.968340
477.936 0.932474
478.602 0.932209
479.267 0.907863
479.933 0.942585
480.598 1.024468
481.264 1.144890
481.93 0.989930
482.596 1.204711
483.262 0.994034
483.928 1.105575
484.594 1.091604
485.261 1.057937
485.927 1.094289
486.594 1.119825
487.26 1.122496
487.927 1.320633
488.594 1.288210
489.261 1.056216
489.928 1.127955
490.596 1.034680
491.263 1.182395
491.93 1.168719
492.598 1.178392
493.266 1.060761
493.933 1.138392
494.601 1.334405
495.269 1.231958
495.937 1.502786
496.606 1.291182
497.274 1.207787
497.942 1.923070
498.611 1.230118
499.279 1.313737
499.948 1.318130
500.617 1.331913
501.286 1.300755
501.955 1.289559
502.624 1.406379
503.293 1.309058
503.963 1.353468
504.632 1.337114
505.302 1.272345
505.972 1.375368
506.641 1.590772
507.311 1.360191
507.981 1.463212
508.651 1.091078
509.322 1.289617
509.992 1.479617
510.662 1.549067
511.333 1.221472
512.004 1.230066
512.674 1.296095
513.345 1.335016
514.016 1.201333
514.687 1.294961
515.358 1.233840
516.029 1.564552
516.701 1.321258
517.372 1.146368
518.044 1.587241
518.716 1.135943
519.387 1.131389
520.059 1.489756
520.731 1.372150
521.403 1.166235
522.076 1.236150
522.748 1.086355
523.42 1.205931
524.093 1.032274
524.765 1.507888
525.438 1.145843
526.111 0.982728
526.784 1.116068
527.457 1.022620
528.13 0.966066
528.803 1.091120
529.476 0.920850
530.15 1.058876
530.823 1.025384
531.497 0.858668
532.171 0.929402
532.845 0.809642
533.519 1.032332
534.193 0.882387
534.867 0.886292
535.541 0.793483
536.216 0.869747
536.89 0.859700
537.564 0.759296
538.239 0.867644
538.914 0.731025
539.589 0.686961
540.264 0.738086
540.939 0.692087
541.614 0.713266
542.289 0.720407
542.965 0.718062
543.64 0.636511
544.316 0.680010
544.991 0.603340
545.667 0.608915
546.343 0.667850
547.019 0.599852
547.695 0.604769
548.371 0.582209
549.048 0.610211
549.724 0.553092
550.401 0.499738
551.077 0.485134
551.754 0.522792
552.431 0.524515
553.108 0.470239
553.785 0.484383
554.462 0.513960
555.139 0.406718
555.816 0.452125
556.494 0.460452
557.171 0.414829
557.849 0.444602
558.527 0.422886
559.204 0.361237
559.882 0.334244
560.56 0.370046
561.238 0.359494
561.917 0.337252
562.595 0.331176
563.273 0.308044
563.952 0.299358
564.63 0.305978
565.309 0.329724
565.988 0.297389
566.667 0.275108
567.346 0.266122
568.025 0.276114
568.704 0.252787
569.384 0.263838
570.063 0.245902
570.742 0.230602
571.422 0.238196
572.102 0.238976
572.782 0.237903
573.462 0.236551
574.141 0.228515
574.822 0.213778
575.502 0.228512
576.182 0.226548
576.863 0.211980
577.543 0.202338
578.224 0.197810
578.904 0.201785
579.585 0.198196
580.266 0.186536
580.947 0.190785
581.628 0.170916
582.309 0.173324
582.991 0.172723
583.672 0.178708
584.354 0.166437
585.035 0.176117
585.717 0.160506
586.399 0.163263
587.08 0.158266
587.762 0.152021
588.444 0.151991
589.127 0.147517
589.809 0.149927
590.491 0.146418
591.174 0.137493
591.856 0.149627
592.539 0.131041
593.222 0.145322
593.905 0.141512
594.587 0.139402
595.27 0.137806
595.954 0.142691
596.637 0.143241
597.32 0.139047
598.004 0.136708
598.687 0.147068
599.371 0.124393
600.055 0.137047
600.738 0.113459
601.422 0.117512
602.106 0.123649
602.79 0.127879
603.475 0.119676
604.159 0.122179
604.843 0.129321
605.528 0.117531
606.212 0.117362
606.897 0.112404
607.582 0.114656
608.267 0.109895
608.952 0.113033
609.637 0.119844
610.322 0.110535
611.007 0.115187
611.693 0.110719
612.378 0.121412
613.064 0.109848
613.749 0.108184
614.435 0.119941
615.121 0.110686
615.807 0.106674
616.493 0.114546
617.179 0.103764
617.865 0.118177
618.552 0.107754
619.238 0.116277
619.924 0.118336
620.611 0.083606
621.298 0.120784
621.985 0.112302
622.671 0.097892
623.358 0.101254
624.045 0.121664
624.733 0.081573
625.42 0.090891
626.107 0.086135
626.795 0.116289
627.482 0.112283
628.17 0.106990
628.858 0.093936
629.545 0.097595
630.233 0.109908
630.921 0.112197
631.609 0.108193
632.298 0.082315
632.986 0.097205
633.674 0.108419
634.363 0.090622
635.051 0.124992
635.74 0.097025
636.429 0.090249
637.118 0.085618
637.807 0.098462
638.496 0.082981
639.185 0.083976
639.874 0.105125
640.563 0.095719
641.253 0.087631
641.942 0.118335
642.632 0.037375
643.322 0.084465
644.011 0.079614
644.701 0.085648
645.391 0.095516
646.081 0.087105
646.771 0.053224
647.462 0.137917
648.152 0.095457
648.842 0.071051
649.533 0.104640
650.224 0.124288
650.914 0.103221
651.605 0.094317
652.296 0.073023
652.987 0.071662
653.678 0.085139
654.369 0.117697
655.061 0.131027
655.752 0.108740
656.443 0.001458
657.135 0.109283
657.826 0.109723
658.518 0.108937
659.21 0.139337
659.902 0.166041
660.594 0.121338
661.286 0.155770
661.978 0.096004
662.67 0.090938
663.363 0.121364
664.055 0.120314
664.748 0.092728
665.44 0.101810
666.133 0.116606
666.826 0.107429
667.519 0.085234
668.212 0.051340
668.905 0.129069
669.598 0.077799
670.291 0.098467
670.985 0.114911
671.678 0.064674
672.372 0.095557
673.065 0.114985
673.759 0.097826
674.453 0.089039
675.147 0.085790
675.841 0.123082
676.535 0.090420
677.229 0.116308
677.923 0.092397
678.617 0.122641
679.312 0.108331
680.006 0.091666
680.701 0.112321
681.396 0.088812
682.091 0.128428
682.785 0.048930
683.48 0.110883
684.175 0.085064
684.87 0.090357
685.566 0.089150
686.261 0.123147
686.957 0.078159
687.652 0.071266
688.348 0.068157
689.043 0.110404
689.739 0.104422
690.435 0.109893
691.131 0.104130
691.827 0.122436
692.523 0.106542
693.219 0.102405
693.915 0.105780
694.612 0.100038
695.308 0.120995
696.005 0.125205
696.702 0.087997
697.398 0.112658
698.095 0.092523
698.792 0.085088
699.489 0.055758
700.186 0.097228
700.883 0.101794
701.581 0.128649
702.278 0.104096
702.975 0.105431
703.673 0.131802
704.37 0.092004
705.068 0.075147
705.766 0.093533
706.464 0.127201
707.162 0.058212
707.86 0.121331
708.558 0.085772
709.256 0.075453
709.955 0.107122
710.653 0.063994
711.351 0.060995
712.05 0.083879
712.749 0.056942
713.447 0.061365
714.146 0.100480
714.845 0.091553
715.544 0.095030
716.243 0.073090
716.942 0.068724
717.642 0.085432
718.341 0.090367
719.04 0.096796
719.74 0.113556
720.439 0.098428
721.139 0.088696
721.839 0.117423
722.539 0.100302
723.239 0.116832
723.939 0.095030
724.639 0.138264
725.339 0.076338
726.039 0.072268
726.74 0.095257
727.44 0.119069
728.141 0.109712
728.841 0.067548
729.542 0.104128
730.243 0.092846
730.944 0.118042
731.645 0.113478
732.346 0.095151
733.047 0.091560
733.748 0.091881
734.449 0.087925
735.151 0.085233
735.852 0.107504
736.554 0.131988
737.256 0.061026
737.957 0.103368
738.659 0.111768
739.361 0.089779
740.063 0.076593
740.765 0.064310
741.467 0.092630
742.169 0.081122
742.872 0.099423
743.574 0.087904
744.277 0.060375
744.979 0.095487
745.682 0.126801
746.385 0.110571
747.087 0.107242
747.79 0.093882
748.493 0.106277
749.196 0.077087
749.899 0.107444
750.603 0.081329
751.306 0.091021
752.01 0.091254
752.713 0.086591
753.417 0.081059
754.12 0.083602
754.824 0.090988
755.528 0.080992
756.232 0.115771
756.936 0.112207
757.64 0.105460
758.344 0.086358
759.048 0.109527
759.752 0.073149
760.457 0.083300
761.161 0.073327
761.866 0.105722
762.571 0.104733
763.275 0.093440
763.98 0.106195
764.685 0.091747
765.39 0.091984
766.095 0.079725
766.8 0.112901
767.505 0.088976
768.211 0.090218
768.916 0.109960
769.621 0.098689
770.327 0.104181
771.033 0.064305
771.738 0.115885
772.444 0.115178
773.15 0.071991
773.856 0.094869
774.562 0.092948
775.268 0.084885
775.974 0.106041
776.68 0.120196
777.387 0.110846
778.093 0.078816
778.8 0.095864
779.506 0.102577
780.213 0.081091
780.92 0.109902
781.626 0.102475
782.333 0.080654
783.04 0.080229
783.747 0.068957
784.455 0.067021
785.162 0.106025
785.869 0.102036
786.577 0.065716
787.284 0.085482
787.992 0.086682
788.699 0.095496
789.407 0.079089
790.115 0.108282
790.823 0.070014
791.531 0.084892
792.239 0.062370
792.947 0.073558
793.655 0.106179
794.363 0.091710
795.072 0.101766
795.78 0.101781
796.489 0.095431
797.197 0.088730
797.906 0.105682
798.615 0.088401
799.323 0.081824
800.032 0.086020
800.741 0.039216
801.45 0.098488
802.159 0.123319
802.869 0.132449
803.578 0.107516
804.287 0.147522
804.997 0.055430
805.706 0.082569
806.416 0.060300
807.126 0.122469
807.835 0.093230
808.545 0.108774
809.255 0.050190
809.965 0.137064
810.675 0.068733
811.385 0.094551
812.096 0.047485
812.806 0.185818
813.516 0.057648
814.227 0.103551
814.937 0.088636
815.648 0.037901
816.359 0.107555
817.069 0.109547
817.78 0.092774
818.491 0.133253
819.202 0.081591
819.913 0.088100
820.624 0.094304
821.336 0.122128
822.047 0.120555
822.758 0.141969
823.47 0.082451
824.181 0.114102
824.893 0.132193
825.605 0.149567
826.317 0.081523
827.028 0.110777
827.74 0.102059
828.452 0.147289
829.164 0.090232
829.876 0.093812
830.589 0.086396
831.301 0.164321
832.013 0.141015
832.726 0.152278
833.438 0.157547
834.151 0.094227
834.864 0.089893
835.577 0.149439
836.289 0.178703
837.002 0.074539
837.715 -0.004792
838.428 0.099074
839.141 0.126813
839.855 0.088067
840.568 0.143819
841.281 0.020639
841.995 0.169705
842.708 0.045300
843.422 0.146882
844.135 0.196202
844.849 0.037153
845.563 0.057371
846.277 -0.004245
846.991 0.101031
847.705 0.411328
848.419 0.141018
849.133 0.149199
849.847 0.201210
850.562 0.140075
851.276 0.072013
851.991 0.081862
852.705 0.010579
853.42 0.162646
854.135 0.129515
854.85 0.133958
855.564 0.111605
856.279 0.141952
856.994 0.087946
857.709 0.050989
858.424 0.073996
859.14 0.127427
859.855 0.102511
860.57 0.214333
861.286 0.224022
862.001 0.235062
862.717 0.196026
863.433 0.092046
864.148 -0.001110
864.864 0.234950
865.58 0.040077
866.296 0.073897
867.012 0.148136
867.728 0.103286
868.444 0.014252
869.161 -0.054810
869.877 0.020735
870.593 0.304603
871.31 0.126057
872.026 0.021363
872.743 -0.038503
873.46 0.152214
874.176 -0.011141
874.893 -0.003585
875.61 0.133995
876.327 0.078655
877.044 0.119168
877.761 0.049266
878.478 0.141793
879.196 0.137049
879.913 0.081691
880.63 0.054725
881.348 0.125805
882.065 0.190612
882.783 0.126030
883.501 0.086930
884.218 0.027900
884.936 0.181946
885.654 0.142294
886.372 0.105806
887.09 0.079304
887.808 0.051929
888.527 0.172159
889.245 0.082943
889.963 0.147701
890.682 0.255693
891.4 0.216949
892.119 0.169506
892.837 0.232211
893.556 0.167132
894.275 0.226440
894.994 0.196366
895.712 0.324900
896.431 0.122897
897.15 0.173968
897.87 -0.014593
898.589 0.161685
899.308 0.212423
900.027 -0.055500
900.747 0.200070
901.466 0.203233
902.186 0.087758
902.905 0.198924
903.625 0.162243
904.345 0.199580
905.064 0.025989
905.784 0.311995
906.504 0.205879
907.224 0.074290
907.944 0.067225
908.664 0.123052
909.385 0.238145
910.105 0.173091
910.825 0.329271
911.546 -0.026996
912.266 0.322796
912.987 0.057400
913.707 0.315429
914.428 0.207760
915.149 0.241873
915.87 0.351580
916.591 0.117303
917.312 0.080182
918.033 0.230795
918.754 0.169513
919.475 0.034420
920.196 0.164137
920.918 0.124110
921.639 0.114011
922.361 0.174400
923.082 0.167003
923.804 0.224689
924.525 0.273470
925.247 0.119012
925.969 0.130001
926.691 0.191161
927.413 0.204434
928.135 0.686779
928.857 0.382724
929.579 0.348053
930.301 3.376577
931.023 0.232930
931.746 0.113555
932.468 0.391279
933.191 1.469471
933.913 0.285155
934.636 -0.005630
935.358 0.123325
936.081 0.060344
936.804 -0.025826
937.527 0.017729
938.25 0.537376
938.973 0.548672
939.696 0.391248
940.419 3.132900
941.142 2.913814
941.865 0.345101
942.589 0.606449
943.312 1.001371
944.036 0.240529
944.759 0.198238
945.483 3.272770
946.207 -0.107200
946.93 0.524427
947.654 0.162593
948.378 0.059938
949.102 0.283876
949.826 0.212177
950.55 0.162395
951.274 -0.092413
951.998 0.879531
952.723 0.107247
953.447 -0.243701
954.171 1.770852
954.896 -0.067428
955.62 0.015713
956.345 0.265946
957.07 0.043818
957.794 -0.166268
958.519 -0.031045
959.244 -0.151505
959.969 -0.137969
960.694 -0.297352
961.419 -0.304395
962.144 2.673021
962.869 2.719331
963.594 0.175167
964.32 -0.113059
965.045 2.945961
965.77 0.079988
966.496 0.162642
967.222 -0.329377
967.947 -0.455812
968.673 0.174792
969.399 -0.386775
970.125 -0.351155
970.85 1.086868
971.576 0.128968
972.302 0.719986
973.028 3.206826
973.755 0.852522
974.481 -0.424827
975.207 0.714314
975.933 -0.410174
976.66 -0.074067
977.386 2.745075
978.113 -0.201022
978.839 0.158384
979.566 0.638395
980.293 3.008600
981.019 2.752816
981.746 -0.941653
982.473 0.245134
983.2 0.053323
983.927 1.267172
984.654 2.760422
985.381 3.229170
986.109 -2.227887
986.836 3.142702
987.563 2.700704
988.291 0.436140
989.018 1.492028
989.746 2.123852
990.473 2.935507
991.201 0.165291
991.928 0.000000
992.656 0.558523
993.384 0.583852
994.112 2.806180
994.84 0.000000
995.568 0.281651
996.296 -0.001934
997.024 -0.388533
997.752 0.844359
998.481 -0.013753
999.209 0.000000
999.937 2.318063
1000.67 0.804145
1001.39 2.745075
1002.12 2.840106
1002.85 0.246766
1003.58 -3.023252
1004.31 1.397112
1005.04 0.406734
1005.77 2.783904
1006.5 0.787607
1007.22 2.653213
1007.95 1.221849
1008.68 2.691965
1009.41 0.000000
1010.14 2.432969
1010.87 -0.051186
1011.6 1.591065
1012.33 0.352317
1013.06 -3.031812
1013.79 1.183947
1014.52 3.161967
1015.25 2.940516
1015.98 0.084761
1016.71 2.190332
1017.44 2.562293
1018.17 0.316325
1018.9 3.021603
1019.63 0.013835
1020.36 2.575188
1021.09 3.287130
1021.82 0.000000
1022.55 2.902003
1023.03 2.812913