File: Auto_Polymerization/Data/UV_VIS_Spectra/MRG-061-F5_spectra_while_stopped_with_alu_foil/spectrum_2025-06-20_10-18-17.txt
# Wavelength (nm)	Intensity (a.u.)
197.7802	0.000341
198.3922	0.000889
199.0044	0.000404
199.6168	0.000046
200.2292	0.000425
200.8418	0.001374
201.4546	0.000805
202.0674	0.000046
202.6805	0.001733
203.2936	-0.000566
203.9069	0.001943
204.5203	0.000172
205.1338	0.000594
205.7475	0.000826
206.3614	0.000299
206.9753	-0.000102
207.5894	0.000446
208.2036	0.001205
208.8180	0.000636
209.4325	0.001395
210.0471	-0.000334
210.6618	-0.000503
211.2767	0.001627
211.8918	0.000446
212.5069	0.001079
213.1222	0.000931
213.7376	0.000341
214.3532	0.000467
214.9689	0.001205
215.5847	0.000257
216.2007	0.000615
216.8168	-0.001262
217.4330	-0.000777
218.0494	0.000425
218.6659	0.000826
219.2825	0.001353
219.8992	0.001480
220.5161	0.000467
221.1332	0.002513
221.7503	-0.000819
222.3676	0.001332
222.9850	0.000889
223.6026	0.000172
224.2203	-0.000355
224.8381	0.001227
225.4561	-0.000460
226.0742	0.000763
226.6924	-0.000207
227.3107	0.001353
227.9292	0.001121
228.5478	0.000910
229.1666	0.000172
229.7855	0.001100
230.4045	0.000889
231.0236	0.000636
231.6429	0.000910
232.2623	-0.000081
232.8818	-0.000397
233.5015	0.000615
234.1213	0.000742
234.7413	0.000594
235.3613	0.000805
235.9815	0.000952
236.6018	0.001037
237.2223	0.000995
237.8429	0.001522
238.4636	0.000974
239.0845	0.000489
239.7055	0.001100
240.3266	0.001184
240.9478	0.000130
241.5692	0.001311
242.1907	-0.000018
242.8124	0.000278
243.4341	0.001712
244.0560	0.001121
244.6781	-0.000207
245.3002	0.001353
245.9225	0.001543
246.5449	-0.000545
247.1675	0.000046
247.7902	0.002513
248.4130	0.000931
249.0359	0.000404
249.6590	0.000931
250.2822	0.000636
250.9056	0.001648
251.5290	0.000467
252.1526	0.000763
252.7763	0.000088
253.4002	0.002091
254.0242	0.000805
254.6483	0.001775
255.2725	0.000742
255.8969	-0.000629
256.5214	0.001227
257.1460	0.000046
257.7708	-0.000039
258.3957	-0.000018
259.0207	0.000257
259.6459	0.001965
260.2711	-0.000292
260.8965	0.000320
261.5221	0.001690
262.1477	0.001121
262.7735	-0.000018
263.3995	0.001248
264.0255	0.001458
264.6517	0.000995
265.2780	0.000657
265.9044	0.001184
266.5310	0.000446
267.1577	0.000299
267.7845	-0.000334
268.4114	0.000510
269.0385	0.001501
269.6657	0.001269
270.2931	0.000868
270.9205	0.000320
271.5481	0.000151
272.1758	0.000826
272.8037	-0.000692
273.4316	0.000636
274.0597	0.000341
274.6880	-0.000735
275.3163	0.000847
275.9448	0.001859
276.5734	0.000847
277.2022	0.000826
277.8310	-0.000228
278.4600	0.000531
279.0891	0.000404
279.7184	0.000742
280.3477	-0.000271
280.9772	0.001416
281.6069	0.000974
282.2366	0.001332
282.8665	0.000278
283.4965	0.001943
284.1266	0.000636
284.7569	0.001121
285.3873	0.001437
286.0178	0.000489
286.6484	-0.000207
287.2792	0.001311
287.9101	-0.000587
288.5411	0.001648
289.1723	0.001205
289.8035	0.000720
290.4349	-0.000081
291.0665	0.001332
291.6981	0.000025
292.3299	0.001163
292.9618	0.000889
293.5938	0.001100
294.2260	-0.000481
294.8582	0.000931
295.4906	0.001395
296.1232	0.002323
296.7558	0.000362
297.3886	0.000278
298.0215	0.001311
298.6545	0.000425
299.2877	0.000889
299.9210	0.000910
300.5544	0.000489
301.1879	0.000805
301.8215	0.000657
302.4553	0.000193
303.0892	-0.000671
303.7233	-0.000250
304.3574	-0.000882
304.9917	0.001458
305.6261	0.001395
306.2606	0.001353
306.8953	0.000193
307.5301	0.000130
308.1650	-0.000207
308.8000	0.001100
309.4351	0.000088
310.0704	0.000320
310.7058	-0.000186
311.3413	0.001627
311.9770	-0.000081
312.6127	0.001269
313.2486	0.000847
313.8846	0.000151
314.5208	0.000826
315.1570	0.001121
315.7934	-0.000123
316.4299	0.001901
317.0666	0.000847
317.7033	0.002534
318.3402	0.000636
318.9772	-0.000756
319.6143	0.000383
320.2516	0.000636
320.8890	0.000952
321.5265	0.001353
322.1641	0.000742
322.8018	0.001332
323.4397	0.001395
324.0777	0.001121
324.7158	-0.000081
325.3540	0.000995
325.9924	-0.000228
326.6308	0.001290
327.2694	0.000573
327.9082	0.002028
328.5470	0.000615
329.1860	0.000552
329.8251	0.000573
330.4643	0.000931
331.1036	-0.000271
331.7431	0.000847
332.3826	0.000467
333.0223	0.001901
333.6622	0.002154
334.3021	0.000235
334.9422	0.000362
335.5823	0.000952
336.2227	0.000910
336.8631	0.000678
337.5036	0.000299
338.1443	0.002175
338.7851	0.000446
339.4260	0.000763
340.0670	0.000742
340.7082	0.000699
341.3495	0.000742
341.9909	0.001965
342.6324	0.000130
343.2740	0.002428
343.9158	0.001437
344.5577	0.000320
345.1997	-0.000165
345.8418	0.001754
346.4840	0.000320
347.1264	0.000995
347.7689	0.000425
348.4115	0.001712
349.0542	0.001986
349.6971	-0.000018
350.3400	0.001564
350.9831	0.000720
351.6263	-0.000186
352.2696	0.000805
352.9131	0.000510
353.5566	0.001016
354.2003	0.000299
354.8441	0.000952
355.4881	0.001353
356.1321	0.001480
356.7763	0.000299
357.4206	0.000889
358.0650	0.000046
358.7095	0.001690
359.3541	0.000299
359.9989	0.001016
360.6438	0.001163
361.2888	0.002070
361.9339	0.000699
362.5791	0.000868
363.2245	0.001142
363.8699	0.000151
364.5155	0.000214
365.1612	0.002112
365.8071	0.002028
366.4530	0.000257
367.0991	0.001290
367.7453	0.001543
368.3916	-0.000060
369.0380	-0.001283
369.6845	0.000615
370.3312	0.001501
370.9780	0.000678
371.6249	0.002260
372.2719	0.000383
372.9190	0.000193
373.5663	0.000088
374.2136	0.000299
374.8611	0.000763
375.5087	0.000446
376.1564	0.000699
376.8043	0.000172
377.4522	0.001648
378.1003	0.000404
378.7485	0.001669
379.3968	0.003209
380.0452	0.000172
380.6938	0.000699
381.3424	0.000784
381.9912	0.001669
382.6401	0.001395
383.2891	0.001227
383.9382	0.000678
384.5875	0.000805
385.2368	0.000320
385.8863	0.002133
386.5359	0.000214
387.1856	0.000004
387.8355	0.002091
388.4854	0.000974
389.1355	0.001248
389.7856	0.002112
390.4359	0.001458
391.0863	0.001922
391.7369	0.001922
392.3875	0.000678
393.0383	0.000383
393.6891	0.002998
394.3401	0.001353
394.9912	0.001922
395.6425	0.002808
396.2938	0.002028
396.9453	0.002829
397.5968	0.004411
398.2485	0.002913
398.9003	0.003441
399.5522	0.003757
400.2043	0.005486
400.8564	0.004263
401.5087	0.003778
402.1610	0.004284
402.8135	0.005360
403.4661	0.004727
404.1189	0.005275
404.7717	0.006393
405.4246	0.006772
406.0777	0.005592
406.7309	0.007447
407.3842	0.006772
408.0376	0.006857
408.6911	0.006625
409.3448	0.007194
409.9985	0.008459
410.6524	0.007194
411.3064	0.008291
411.9605	0.008122
412.6147	0.011116
413.2690	0.009535
413.9234	0.010231
414.5780	0.010589
415.2326	0.010357
415.8874	0.009282
416.5423	0.009577
417.1973	0.011222
417.8524	0.010315
418.5077	0.011011
419.1630	0.012065
419.8185	0.012740
420.4741	0.012951
421.1298	0.012318
421.7856	0.015081
422.4415	0.013267
423.0975	0.015608
423.7536	0.014596
424.4099	0.016051
425.0663	0.014195
425.7228	0.015755
426.3793	0.013141
427.0361	0.012698
427.6929	0.014870
428.3498	0.014321
429.0068	0.015291
429.6640	0.016409
430.3213	0.017569
430.9787	0.017379
431.6362	0.016725
432.2938	0.016704
432.9515	0.014806
433.6093	0.017632
434.2673	0.019403
434.9253	0.019129
435.5835	0.016725
436.2418	0.015819
436.9001	0.018433
437.5586	0.015376
438.2173	0.017126
438.8760	0.016536
439.5348	0.018244
440.1938	0.017042
440.8528	0.019656
441.5120	0.020626
442.1713	0.022102
442.8307	0.019382
443.4902	0.018897
444.1498	0.019572
444.8095	0.019614
445.4694	0.019720
446.1293	0.019783
446.7894	0.020310
447.4496	0.018286
448.1098	0.017590
448.7702	0.017906
449.4307	0.017295
450.0914	0.017084
450.7521	0.018117
451.4129	0.016198
452.0739	0.014638
452.7349	0.015819
453.3961	0.014237
454.0574	0.013984
454.7188	0.014364
455.3803	0.015165
456.0419	0.013942
456.7036	0.013035
457.3654	0.015840
458.0274	0.014954
458.6894	0.013815
459.3516	0.012360
460.0138	0.015502
460.6762	0.013415
461.3387	0.015376
462.0013	0.011306
462.6640	0.010505
463.3268	0.011791
463.9897	0.010167
464.6528	0.011812
465.3159	0.012318
465.9792	0.011496
466.6425	0.009914
467.3060	0.010863
467.9696	0.009703
468.6333	0.010020
469.2970	0.008375
469.9610	0.007932
470.6250	0.008375
471.2891	0.006730
471.9533	0.006646
472.6177	0.006435
473.2821	0.005423
473.9467	0.007257
474.6113	0.008122
475.2761	0.007869
475.9410	0.008586
476.6060	0.007721
477.2711	0.006287
477.9363	0.005971
478.6016	0.005402
479.2670	0.004980
479.9325	0.005402
480.5982	0.005170
481.2639	0.006414
481.9298	0.005360
482.5957	0.006920
483.2618	0.004832
483.9280	0.004453
484.5943	0.006245
485.2606	0.006561
485.9271	0.015629
486.5937	0.010758
487.2605	0.006540
487.9273	0.004516
488.5942	0.004305
489.2612	0.004094
489.9284	0.004221
490.5956	0.003462
491.2630	0.004748
491.9304	0.002745
492.5980	0.004706
493.2657	0.002956
493.9334	0.004115
494.6013	0.003293
495.2693	0.004115
495.9374	0.003799
496.6056	0.004495
497.2739	0.004368
497.9423	0.003188
498.6109	0.002682
499.2795	0.003546
499.9482	0.003462
500.6171	0.003841
501.2860	0.002597
501.9551	0.003082
502.6242	0.003736
503.2935	0.003462
503.9628	0.002471
504.6323	0.001838
505.3019	0.003356
505.9716	0.002808
506.6414	0.003905
507.3113	0.001205
507.9813	0.003609
508.6514	0.002597
509.3216	0.001901
509.9919	0.003841
510.6623	0.002956
511.3329	0.002154
512.0035	0.001585
512.6742	0.001817
513.3451	0.002218
514.0160	0.002534
514.6871	0.001838
515.3582	0.002281
516.0295	0.002956
516.7008	0.003630
517.3723	0.002639
518.0439	0.002302
518.7155	0.001690
519.3873	0.002935
520.0592	0.002323
520.7312	0.004516
521.4033	0.003905
522.0755	0.002745
522.7478	0.003883
523.4202	0.002323
524.0927	0.003335
524.7653	0.003462
525.4380	0.003525
526.1108	0.004453
526.7837	0.005149
527.4568	0.002850
528.1299	0.003715
528.8031	0.002808
529.4765	0.005950
530.1499	0.004411
530.8234	0.003652
531.4971	0.004600
532.1708	0.006203
532.8447	0.006161
533.5186	0.006266
534.1927	0.005908
534.8668	0.006287
535.5411	0.006498
536.2155	0.007553
536.8899	0.005971
537.5645	0.008396
538.2392	0.006372
538.9139	0.008185
539.5888	0.008902
540.2638	0.008122
540.9389	0.009493
541.6140	0.008417
542.2893	0.009493
542.9647	0.010420
543.6402	0.011664
544.3158	0.010547
544.9915	0.011728
545.6673	0.010948
546.3432	0.012044
547.0192	0.012360
547.6953	0.013267
548.3715	0.015081
549.0478	0.016662
549.7242	0.014153
550.4007	0.013710
551.0773	0.014764
551.7540	0.015418
552.4308	0.016072
553.1077	0.017400
553.7847	0.017611
554.4618	0.018391
555.1390	0.018686
555.8163	0.019677
556.4937	0.021280
557.1712	0.020795
557.8488	0.020120
558.5266	0.019614
559.2044	0.020352
559.8823	0.022124
560.5603	0.024865
561.2384	0.028028
561.9166	0.027754
562.5949	0.026067
563.2733	0.030284
563.9519	0.028660
564.6305	0.030664
565.3092	0.033025
565.9880	0.032055
566.6669	0.032224
567.3459	0.039330
568.0250	0.043063
568.7043	0.050738
569.3836	0.059763
570.0630	0.078299
570.7425	0.083887
571.4221	0.097234
572.1018	0.108621
572.7816	0.094535
573.4615	0.106323
574.1415	0.124247
574.8216	0.135570
575.5018	0.141559
576.1821	0.119945
576.8626	0.139092
577.5431	0.149572
578.2237	0.186727
578.9044	0.159461
579.5851	0.156783
580.2660	0.163341
580.9470	0.159609
581.6281	0.251568
582.3093	0.239844
582.9906	0.185883
583.6720	0.152482
584.3535	0.155223
585.0351	0.177533
585.7167	0.188983
586.3985	0.156277
587.0804	0.169014
587.7624	0.177322
588.4445	0.157775
589.1266	0.139218
589.8089	0.130847
590.4913	0.117372
591.1737	0.102316
591.8563	0.103982
592.5389	0.122180
593.2217	0.160895
593.9046	0.151111
594.5875	0.137721
595.2705	0.155792
595.9537	0.136076
596.6369	0.111384
597.3203	0.116276
598.0037	0.113935
598.6872	0.124310
599.3709	0.148285
600.0546	0.144279
600.7384	0.144637
601.4223	0.141074
602.1064	0.132386
602.7905	0.135950
603.4747	0.150795
604.1590	0.138269
604.8434	0.123256
605.5279	0.129560
606.2125	0.137341
606.8972	0.122728
607.5819	0.125174
608.2668	0.119312
608.9518	0.111742
609.6369	0.106007
610.3220	0.118532
611.0073	0.109486
611.6927	0.110667
612.3781	0.103371
613.0637	0.104467
613.7493	0.103940
614.4351	0.102148
615.1209	0.100018
615.8068	0.108474
616.4929	0.092406
617.1790	0.086586
617.8652	0.087092
618.5515	0.082832
619.2379	0.071994
619.9244	0.075853
620.6110	0.076042
621.2977	0.060269
621.9845	0.065056
622.6714	0.069168
623.3584	0.068831
624.0454	0.069421
624.7326	0.072183
625.4199	0.068093
626.1072	0.062631
626.7947	0.057233
627.4822	0.056642
628.1698	0.052299
628.8576	0.046943
629.5454	0.051434
630.2333	0.049536
630.9213	0.045403
631.6094	0.042810
632.2976	0.042999
632.9859	0.035661
633.6743	0.037875
634.3628	0.035682
635.0514	0.032393
635.7400	0.033131
636.4288	0.038171
637.1177	0.036863
637.8066	0.031950
638.4957	0.035008
639.1848	0.032161
639.8740	0.032432
640.5633	0.029209
641.2528	0.028495
641.9423	0.025286
642.6319	0.024839
643.3216	0.022328
644.0113	0.023439
644.7012	0.020917
645.3912	0.022845
646.0812	0.019462
646.7714	0.021293
647.4616	0.019670
648.1520	0.022553
648.8424	0.028741
649.5329	0.026298
650.2236	0.023839
650.9143	0.023925
651.6051	0.023301
652.2960	0.026654
652.9870	0.026166
653.6780	0.029412
654.3692	0.028013
655.0605	0.046162
655.7518	0.790694
656.4433	1.006725
657.1348	0.705432
657.8264	0.429339
658.5181	0.317316
659.2099	0.232071
659.9018	0.056562
660.5938	0.022622
661.2859	0.019594
661.9781	0.018551
662.6704	0.018308
663.3627	0.017638
664.0552	0.019043
664.7477	0.019002
665.4403	0.019419
666.1330	0.019281
666.8259	0.016892
667.5188	0.016836
668.2117	0.016653
668.9048	0.019129
669.5980	0.016578
670.2913	0.017358
670.9846	0.018096
671.6781	0.025940
672.3716	0.028133
673.0652	0.027226
673.7589	0.024274
674.4527	0.022419
675.1466	0.021702
675.8406	0.022313
676.5347	0.021175
677.2288	0.019551
677.9231	0.024443
678.6174	0.024928
679.3119	0.026278
680.0064	0.030305
680.7010	0.028154
681.3957	0.028302
682.0905	0.027079
682.7854	0.025455
683.4803	0.025371
684.1754	0.027458
684.8705	0.031971
685.5658	0.035071
686.2611	0.038466
686.9565	0.034312
687.6520	0.036188
688.3476	0.030516
689.0433	0.029441
689.7390	0.029778
690.4349	0.029082
691.1308	0.031992
691.8269	0.031676
692.5230	0.029905
693.2192	0.032140
693.9155	0.031106
694.6119	0.028555
695.3083	0.029019
696.0049	0.024717
696.7016	0.030453
697.3983	0.033236
698.0951	0.031212
698.7920	0.032519
699.4890	0.028829
700.1861	0.026235
700.8833	0.025877
701.5806	0.021913
702.2779	0.024802
702.9753	0.024253
703.6729	0.023684
704.3705	0.022461
705.0682	0.020141
705.7660	0.018665
706.4638	0.025518
707.1618	0.032034
707.8599	0.030853
708.5580	0.032920
709.2562	0.029968
709.9545	0.029272
710.6529	0.027163
711.3514	0.024527
712.0500	0.023557
712.7486	0.024612
713.4474	0.027205
714.1462	0.028070
714.8451	0.028639
715.5441	0.028260
716.2432	0.026889
716.9424	0.023895
717.6416	0.022250
718.3410	0.024274
719.0404	0.023663
719.7399	0.024253
720.4395	0.024949
721.1392	0.024823
721.8390	0.025265
722.5388	0.022651
723.2388	0.024338
723.9388	0.022124
724.6389	0.022250
725.3391	0.026067
726.0394	0.027058
726.7398	0.028154
727.4403	0.027079
728.1408	0.026320
728.8414	0.027859
729.5421	0.029820
730.2429	0.031085
730.9438	0.034291
731.6448	0.035703
732.3458	0.034269
733.0470	0.035851
733.7482	0.036357
734.4495	0.041819
735.1509	0.040385
735.8524	0.039098
736.5539	0.040680
737.2556	0.041080
737.9573	0.035176
738.6591	0.033384
739.3610	0.035977
740.0630	0.038719
740.7651	0.032688
741.4672	0.028977
742.1695	0.027796
742.8718	0.029166
743.5742	0.026488
744.2767	0.025097
744.9792	0.023600
745.6819	0.021807
746.3846	0.023072
747.0874	0.022819
747.7903	0.026805
748.4933	0.024190
749.1964	0.024844
749.8995	0.027817
750.6028	0.035197
751.3061	0.030432
752.0095	0.035071
752.7130	0.032667
753.4166	0.032203
754.1202	0.032098
754.8239	0.031191
755.5278	0.035556
756.2317	0.036947
756.9356	0.043759
757.6397	0.048608
758.3438	0.046289
759.0481	0.042810
759.7524	0.046584
760.4568	0.050928
761.1613	0.051329
761.8658	0.043231
762.5705	0.037601
763.2752	0.041502
763.9800	0.040342
764.6849	0.048735
765.3898	0.048503
766.0949	0.041776
766.8000	0.033995
767.5052	0.032709
768.2105	0.036125
768.9159	0.039457
769.6214	0.037728
770.3269	0.037707
771.0325	0.041460
771.7382	0.037116
772.4440	0.034670
773.1499	0.034185
773.8558	0.030875
774.5618	0.028913
775.2679	0.026025
775.9741	0.022735
776.6804	0.019888
777.3868	0.020605
778.0932	0.019488
778.7997	0.022461
779.5063	0.026910
780.2130	0.023979
780.9197	0.025223
781.6265	0.029525
782.3335	0.030537
783.0405	0.027775
783.7475	0.029588
784.4547	0.026109
785.1619	0.021828
785.8692	0.023768
786.5766	0.023747
787.2841	0.022840
787.9917	0.025814
788.6993	0.025012
789.4070	0.024949
790.1148	0.022883
790.8227	0.021575
791.5306	0.019024
792.2387	0.019424
792.9468	0.018876
793.6550	0.018307
794.3632	0.025708
795.0716	0.026910
795.7800	0.024042
796.4885	0.019930
797.1971	0.017527
797.9058	0.020584
798.6145	0.018623
799.3233	0.020900
800.0322	0.019192
800.7412	0.016156
801.4503	0.016746
802.1594	0.014638
802.8686	0.014068
803.5779	0.015861
804.2873	0.014385
804.9968	0.015228
805.7063	0.013373
806.4159	0.018771
807.1256	0.019214
807.8354	0.019235
808.5452	0.019551
809.2551	0.017569
809.9651	0.016177
810.6752	0.016367
811.3853	0.017316
812.0956	0.015587
812.8059	0.011939
813.5163	0.014216
814.2267	0.015502
814.9373	0.014111
815.6479	0.012339
816.3586	0.012192
817.0694	0.012698
817.7802	0.012424
818.4912	0.014321
819.2022	0.010716
819.9133	0.010969
820.6244	0.012234
821.3357	0.011939
822.0470	0.011686
822.7584	0.011791
823.4698	0.011032
824.1814	0.009661
824.8930	0.010041
825.6047	0.009493
826.3165	0.011074
827.0283	0.012234
827.7402	0.010547
828.4522	0.011918
829.1643	0.011348
829.8765	0.010252
830.5887	0.008628
831.3010	0.008965
832.0134	0.006561
832.7259	0.007553
833.4384	0.008986
834.1510	0.009008
834.8637	0.009577
835.5765	0.008354
836.2893	0.008712
837.0022	0.007405
837.7152	0.007342
838.4283	0.005423
839.1414	0.005823
839.8546	0.007763
840.5679	0.007131
841.2813	0.006498
841.9947	0.005296
842.7082	0.005887
843.4218	0.003715
844.1355	0.005085
844.8492	0.005064
845.5631	0.003694
846.2770	0.004390
846.9909	0.005592
847.7050	0.005444
848.4191	0.005845
849.1333	0.004326
849.8475	0.004558
850.5619	0.005085
851.2763	0.005170
851.9908	0.004706
852.7053	0.009155
853.4200	0.011854
854.1347	0.012782
854.8495	0.011875
855.5643	0.009640
856.2792	0.009703
856.9942	0.010167
857.7093	0.009240
858.4245	0.008143
859.1397	0.007215
859.8550	0.006203
860.5704	0.006878
861.2858	0.005718
862.0013	0.005360
862.7169	0.004622
863.4326	0.005444
864.1483	0.006688
864.8642	0.006308
865.5800	0.004959
866.2960	0.004959
867.0120	0.005465
867.7281	0.004853
868.4443	0.004959
869.1606	0.004853
869.8769	0.003525
870.5933	0.002829
871.3097	0.005212
872.0263	0.003905
872.7429	0.004347
873.4596	0.004453
874.1763	0.005107
874.8932	0.005402
875.6101	0.006055
876.3270	0.006203
877.0441	0.004242
877.7612	0.005634
878.4784	0.007110
879.1957	0.006983
879.9130	0.006793
880.6304	0.007110
881.3479	0.006815
882.0654	0.004959
882.7831	0.004832
883.5007	0.005170
884.2185	0.003715
884.9363	0.004685
885.6542	0.005929
886.3722	0.003715
887.0903	0.005718
887.8084	0.007131
888.5266	0.003799
889.2448	0.005043
889.9632	0.003715
890.6816	0.004832
891.4001	0.003757
892.1186	0.005929
892.8372	0.004411
893.5559	0.004980
894.2747	0.002492
894.9935	0.004158
895.7124	0.003947
896.4314	0.004664
897.1504	0.004010
897.8695	0.004706
898.5887	0.003630
899.3079	0.004537
900.0272	0.003335
900.7466	0.004453
901.4661	0.004411
902.1856	0.004094
902.9052	0.003293
903.6249	0.004875
904.3446	0.003124
905.0644	0.003462
905.7843	0.005549
906.5043	0.003968
907.2243	0.004622
907.9444	0.004727
908.6645	0.004959
909.3847	0.003124
910.1050	0.003905
910.8254	0.003525
911.5458	0.004326
912.2663	0.003019
912.9869	0.003694
913.7075	0.001901
914.4283	0.001922
915.1490	0.003609
915.8699	0.002344
916.5908	0.001606
917.3118	0.003736
918.0328	0.003293
918.7539	0.002281
919.4751	0.003757
920.1964	0.004158
920.9177	0.003630
921.6391	0.004137
922.3606	0.003567
923.0821	0.001943
923.8037	0.003841
924.5254	0.002913
925.2471	0.002703
925.9689	0.001796
926.6908	0.003145
927.4127	0.002618
928.1347	0.002576
928.8568	0.001437
929.5789	0.003546
930.3011	0.003567
931.0234	0.002365
931.7457	0.001859
932.4681	0.001416
933.1906	0.001838
933.9131	0.002049
934.6358	0.001880
935.3584	0.002871
936.0812	0.001353
936.8040	0.001458
937.5269	0.001290
938.2498	0.002850
938.9728	0.001269
939.6959	0.002492
940.4190	0.001290
941.1422	0.002239
941.8655	0.000910
942.5889	0.000067
943.3123	0.001986
944.0357	0.000763
944.7593	0.003209
945.4829	0.000974
946.2066	0.001733
946.9303	0.001838
947.6541	0.001627
948.3780	0.000531
949.1019	0.002428
949.8259	0.002260
950.5500	0.000278
951.2741	0.000193
951.9983	0.001269
952.7226	0.001690
953.4469	0.002850
954.1713	0.000257
954.8958	0.002492
955.6203	0.000889
956.3449	0.002154
957.0696	0.000805
957.7943	0.001712
958.5191	0.001965
959.2439	0.000172
959.9688	0.002407
960.6938	0.002365
961.4189	0.000278
962.1440	0.001037
962.8692	0.001395
963.5944	0.001796
964.3197	0.000510
965.0451	0.000046
965.7705	0.001058
966.4960	0.001733
967.2216	-0.000144
967.9472	0.000425
968.6729	0.001311
969.3987	0.001395
970.1245	0.000657
970.8504	0.002260
971.5763	0.000552
972.3023	0.001332
973.0284	0.001754
973.7545	-0.000081
974.4807	0.001163
975.2070	0.001564
975.9333	0.001100
976.6597	0.002154
977.3862	0.001669
978.1127	0.001458
978.8393	0.001543
979.5659	0.001817
980.2926	0.000868
981.0194	0.000531
981.7462	-0.000039
982.4731	0.000699
983.2001	0.000931
983.9271	0.000425
984.6542	0.001269
985.3814	0.001669
986.1086	0.000489
986.8358	0.000467
987.5632	0.002407
988.2906	0.001311
989.0180	0.000657
989.7456	-0.000777
990.4732	-0.000503
991.2008	0.002407
991.9285	0.000552
992.6563	0.001480
993.3841	0.000088
994.1120	0.000868
994.8400	0.000931
995.5680	0.001480
996.2961	0.000214
997.0242	-0.000228
997.7524	0.001712
998.4807	0.001079
999.2090	0.000109
999.9374	-0.000018
1000.67	0.002281
1001.39	0.001480
1002.12	0.001079
1002.85	0.001290
1003.58	0.000910
1004.31	0.000889
1005.04	0.000952
1005.77	0.000193
1006.5	0.002365
1007.22	0.001501
1007.95	0.001564
1008.68	-0.000481
1009.41	0.000594
1010.14	0.001269
1010.87	0.001205
1011.6	0.000868
1012.33	0.000995
1013.06	0.001480
1013.79	0.001079
1014.52	0.000088
1015.25	0.002576
1015.98	0.000889
1016.71	0.001037
1017.44	0.000720
1018.17	0.000341
1018.9	0.000278
1019.63	0.001543
1020.36	0.000446
1021.09	0.000847
1021.82	0.000467
1022.55	0.000362
1023.03	0.000552