File: Auto_Polymerization/Data/UV_VIS_Spectra/MRG-061-F5_spectra_while_stopped_with_alu_foil/spectrum_2025-06-20_09-32-14.txt
# Wavelength (nm)	Intensity (a.u.)
197.7802	0.000731
198.3922	-0.000366
199.0044	0.001006
199.6168	0.000098
200.2292	-0.000134
200.8418	-0.000113
201.4546	-0.000851
202.0674	0.000141
202.6805	0.001132
203.2936	-0.001020
203.9069	-0.000492
204.5203	-0.001357
205.1338	-0.000134
205.7475	-0.000049
206.3614	0.000753
206.9753	-0.001484
207.5894	-0.000134
208.2036	0.000162
208.8180	0.000478
209.4325	0.000267
210.0471	0.000668
210.6618	-0.000619
211.2767	0.001428
211.8918	-0.000450
212.5069	0.001576
213.1222	-0.000872
213.7376	0.000731
214.3532	-0.000640
214.9689	0.001006
215.5847	0.000499
216.2007	0.000267
216.8168	0.001301
217.4330	0.000352
218.0494	-0.000577
218.6659	0.000098
219.2825	-0.000260
219.8992	0.001787
220.5161	0.000394
221.1332	0.000204
221.7503	-0.001379
222.3676	0.001259
222.9850	0.000077
223.6026	0.000436
224.2203	-0.001273
224.8381	0.000647
225.4561	-0.000134
226.0742	-0.000830
226.6924	-0.000281
227.3107	0.000098
227.9292	0.000014
228.5478	0.000331
229.1666	0.000373
229.7855	-0.000408
230.4045	-0.001104
231.0236	0.000035
231.6429	-0.000113
232.2623	0.000605
232.8818	0.000478
233.5015	-0.001948
234.1213	0.000689
234.7413	-0.000577
235.3613	0.000352
235.9815	0.000246
236.6018	0.000098
237.2223	0.000056
237.8429	-0.000345
238.4636	0.002061
239.0845	-0.000070
239.7055	0.000309
240.3266	0.000183
240.9478	0.001217
241.5692	-0.000007
242.1907	-0.000155
242.8124	0.000246
243.4341	0.001048
244.0560	0.000309
244.6781	0.001322
245.3002	-0.000535
245.9225	-0.000113
246.5449	-0.000788
247.1675	-0.001041
247.7902	-0.000155
248.4130	0.001428
249.0359	0.000183
249.6590	-0.000281
250.2822	-0.000957
250.9056	0.001407
251.5290	-0.001336
252.1526	0.000267
252.7763	-0.000872
253.4002	0.000478
254.0242	-0.000598
254.6483	0.000141
255.2725	-0.000281
255.8969	-0.000049
256.5214	0.000943
257.1460	0.000098
257.7708	0.000520
258.3957	0.002272
259.0207	0.000141
259.6459	-0.000513
260.2711	-0.001041
260.8965	0.000225
261.5221	-0.000387
262.1477	-0.000809
262.7735	-0.000345
263.3995	0.000183
264.0255	-0.001611
264.6517	0.001533
265.2780	-0.000176
265.9044	0.001069
266.5310	-0.000471
267.1577	0.000014
267.7845	-0.000281
268.4114	0.000288
269.0385	-0.000830
269.6657	-0.001020
270.2931	0.000098
270.9205	0.001006
271.5481	0.000394
272.1758	-0.000239
272.8037	0.000964
273.4316	-0.000429
274.0597	0.000584
274.6880	0.000457
275.3163	-0.000893
275.9448	-0.000619
276.5734	0.001449
277.2022	0.001322
277.8310	0.000141
278.4600	-0.000809
279.0891	0.000542
279.7184	0.000943
280.3477	-0.000619
280.9772	0.000056
281.6069	0.001470
282.2366	0.000900
282.8665	-0.000450
283.4965	-0.000197
284.1266	0.000352
284.7569	0.000710
285.3873	0.000373
286.0178	-0.000218
286.6484	-0.001463
287.2792	0.000774
287.9101	0.000014
288.5411	-0.000028
289.1723	0.000141
289.8035	0.001132
290.4349	-0.000830
291.0665	-0.000957
291.6981	-0.000281
292.3299	0.001090
292.9618	0.000816
293.5938	-0.000513
294.2260	-0.000176
294.8582	0.000520
295.4906	0.000225
296.1232	-0.000408
296.7558	0.000288
297.3886	-0.000197
298.0215	-0.000598
298.6545	0.000014
299.2877	-0.001062
299.9210	0.001090
300.5544	0.000098
301.1879	0.000246
301.8215	-0.000830
302.4553	-0.000492
303.0892	-0.000450
303.7233	0.000753
304.3574	-0.000577
304.9917	0.000478
305.6261	0.000499
306.2606	0.001976
306.8953	-0.000429
307.5301	-0.000028
308.1650	0.000077
308.8000	-0.000682
309.4351	0.002272
310.0704	0.000647
310.7058	-0.001189
311.3413	0.000077
311.9770	0.000710
312.6127	0.000436
313.2486	0.000373
313.8846	0.000436
314.5208	-0.001252
315.1570	0.000077
315.7934	-0.000957
316.4299	0.001259
317.0666	-0.000788
317.7033	-0.000830
318.3402	0.000056
318.9772	-0.000113
319.6143	-0.000513
320.2516	0.000436
320.8890	-0.000387
321.5265	0.001132
322.1641	-0.000914
322.8018	0.001132
323.4397	0.001027
324.0777	-0.000260
324.7158	0.000457
325.3540	0.000288
325.9924	0.000858
326.6308	0.000626
327.2694	-0.000703
327.9082	0.002019
328.5470	0.000499
329.1860	0.001301
329.8251	0.000415
330.4643	0.000141
331.1036	-0.000366
331.7431	0.000183
332.3826	0.000056
333.0223	0.000394
333.6622	0.000035
334.3021	0.000246
334.9422	0.000436
335.5823	-0.000070
336.2227	-0.000155
336.8631	0.001238
337.5036	0.000309
338.1443	0.000162
338.7851	-0.000830
339.4260	-0.000324
340.0670	-0.000070
340.7082	0.001554
341.3495	0.001259
341.9909	-0.000049
342.6324	-0.000239
343.2740	-0.000260
343.9158	-0.000682
344.5577	0.000943
345.1997	0.000563
345.8418	0.000542
346.4840	-0.001168
347.1264	-0.001801
347.7689	-0.000682
348.4115	0.000098
349.0542	0.000225
349.6971	-0.000028
350.3400	0.000985
350.9831	-0.000830
351.6263	-0.000619
352.2696	0.000183
352.9131	-0.000577
353.5566	0.000689
354.2003	-0.000450
354.8441	-0.001189
355.4881	-0.000872
356.1321	0.002209
356.7763	0.000183
357.4206	-0.000366
358.0650	0.000668
358.7095	0.000394
359.3541	-0.001189
359.9989	0.000225
360.6438	0.000141
361.2888	0.000246
361.9339	0.000394
362.5791	0.000795
363.2245	0.000309
363.8699	0.000837
364.5155	-0.000281
365.1612	-0.000556
365.8071	0.000415
366.4530	0.000626
367.0991	-0.000197
367.7453	0.000373
368.3916	0.000309
369.0380	-0.000049
369.6845	-0.000957
370.3312	-0.000661
370.9780	-0.000492
371.6249	0.001154
372.2719	-0.000535
372.9190	-0.000091
373.5663	0.001238
374.2136	0.000731
374.8611	0.000077
375.5087	0.000415
376.1564	0.000985
376.8043	0.000478
377.4522	-0.000767
378.1003	-0.000324
378.7485	-0.000513
379.3968	-0.000324
380.0452	-0.000028
380.6938	0.001196
381.3424	-0.000176
381.9912	-0.000535
382.6401	-0.001168
383.2891	-0.000302
383.9382	-0.000218
384.5875	0.001259
385.2368	-0.001611
385.8863	-0.000239
386.5359	-0.000049
387.1856	0.000352
387.8355	-0.000492
388.4854	0.001111
389.1355	0.001154
389.7856	0.001576
390.4359	0.002272
391.0863	0.002736
391.7369	0.002187
392.3875	0.002462
393.0383	0.002947
393.6891	0.004108
394.3401	0.003242
394.9912	0.004445
395.6425	0.003643
396.2938	0.006386
396.9453	0.005732
397.5968	0.006260
398.2485	0.007336
398.9003	0.007716
399.5522	0.009024
400.2043	0.008497
400.8564	0.009615
401.5087	0.008454
402.1610	0.009362
402.8135	0.010311
403.4661	0.010691
404.1189	0.010839
404.7717	0.012653
405.4246	0.012822
406.0777	0.014426
406.7309	0.011957
407.3842	0.013434
408.0376	0.013835
408.6911	0.014996
409.3448	0.013033
409.9985	0.014742
410.6524	0.014975
411.3064	0.015143
411.9605	0.014996
412.6147	0.016367
413.2690	0.016620
413.9234	0.016093
414.5780	0.017865
415.2326	0.017865
415.8874	0.015713
416.5423	0.018055
417.1973	0.018013
417.8524	0.017380
418.5077	0.016536
419.1630	0.017021
419.8185	0.017802
420.4741	0.017865
421.1298	0.019870
421.7856	0.022571
422.4415	0.022001
423.0975	0.021410
423.7536	0.020883
424.4099	0.021115
425.0663	0.021790
425.7228	0.021853
426.3793	0.019342
427.0361	0.018815
427.6929	0.023288
428.3498	0.020355
429.0068	0.020102
429.6640	0.024364
430.3213	0.024048
430.9787	0.021769
431.6362	0.022296
432.2938	0.020418
432.9515	0.019152
433.6093	0.019722
434.2673	0.024343
434.9253	0.021663
435.5835	0.021094
436.2418	0.018963
436.9001	0.021452
437.5586	0.020672
438.2173	0.021368
438.8760	0.021368
439.5348	0.023288
440.1938	0.021073
440.8528	0.022465
441.5120	0.024871
442.1713	0.026221
442.8307	0.022128
443.4902	0.024723
444.1498	0.024744
444.8095	0.023436
445.4694	0.019807
446.1293	0.023225
446.7894	0.023605
447.4496	0.023162
448.1098	0.021241
448.7702	0.020250
449.4307	0.022402
450.0914	0.020672
450.7521	0.019828
451.4129	0.020608
452.0739	0.019216
452.7349	0.017718
453.3961	0.016979
454.0574	0.017296
454.7188	0.016895
455.3803	0.018119
456.0419	0.017085
456.7036	0.014848
457.3654	0.016030
458.0274	0.016515
458.6894	0.017697
459.3516	0.017063
460.0138	0.015375
460.6762	0.014510
461.3387	0.015101
462.0013	0.016008
462.6640	0.012147
463.3268	0.010754
463.9897	0.011197
464.6528	0.013793
465.3159	0.014025
465.9792	0.013265
466.6425	0.011809
467.3060	0.011978
467.9696	0.010417
468.6333	0.010227
469.2970	0.009003
469.9610	0.007821
470.6250	0.008117
471.2891	0.008286
471.9533	0.007547
472.6177	0.007420
473.2821	0.008032
473.9467	0.008032
474.6113	0.006745
475.2761	0.007610
475.9410	0.006302
476.6060	0.005732
477.2711	0.006766
477.9363	0.005606
478.6016	0.005964
479.2670	0.006112
479.9325	0.006154
480.5982	0.006260
481.2639	0.004867
481.9298	0.004044
482.5957	0.004762
483.2618	0.006260
483.9280	0.005564
484.5943	0.004382
485.2606	0.006281
485.9271	0.012168
486.5937	0.014004
487.2605	0.008328
487.9273	0.006049
488.5942	0.004888
489.2612	0.004720
489.9284	0.003791
490.5956	0.003327
491.2630	0.004530
491.9304	0.004171
492.5980	0.002757
493.2657	0.004065
493.9334	0.003791
494.6013	0.004530
495.2693	0.001407
495.9374	0.001808
496.6056	0.003559
497.2739	0.003749
497.9423	0.000710
498.6109	0.003116
499.2795	0.002462
499.9482	0.003179
500.6171	0.002272
501.2860	0.002757
501.9551	0.002293
502.6242	0.003264
503.2935	0.002209
503.9628	0.004614
504.6323	0.002631
505.3019	0.002335
505.9716	0.002799
506.6414	0.003770
507.3113	0.002968
507.9813	0.003221
508.6514	0.001829
509.3216	0.003158
509.9919	0.001259
510.6623	0.002673
511.3329	0.001006
512.0035	0.004044
512.6742	0.001554
513.3451	0.001892
514.0160	0.003095
514.6871	0.002019
515.3582	0.001533
516.0295	0.003854
516.7008	0.001998
517.3723	0.003158
518.0439	0.003306
518.7155	0.002546
519.3873	0.002736
520.0592	0.003791
520.7312	0.002947
521.4033	0.001744
522.0755	0.002187
522.7478	0.002187
523.4202	0.002124
524.0927	0.000816
524.7653	0.003475
525.4380	0.003728
526.1108	0.003221
526.7837	0.001386
527.4568	0.002968
528.1299	0.001871
528.8031	0.004065
529.4765	0.003432
530.1499	0.003749
530.8234	0.003686
531.4971	0.005142
532.1708	0.004551
532.8447	0.004551
533.5186	0.005310
534.1927	0.005922
534.8668	0.005732
535.5411	0.007463
536.2155	0.005226
536.8899	0.007378
537.5645	0.005500
538.2392	0.005289
538.9139	0.008433
539.5888	0.008286
540.2638	0.009172
540.9389	0.010185
541.6140	0.009151
542.2893	0.009657
542.9647	0.010944
543.6402	0.009320
544.3158	0.011725
544.9915	0.012886
545.6673	0.011324
546.3432	0.012949
547.0192	0.013856
547.6953	0.013919
548.3715	0.016895
549.0478	0.016262
549.7242	0.015375
550.4007	0.013371
551.0773	0.015565
551.7540	0.014574
552.4308	0.018308
553.1077	0.017464
553.7847	0.019300
554.4618	0.020735
555.1390	0.017359
555.8163	0.020102
556.4937	0.023394
557.1712	0.022339
557.8488	0.021769
558.5266	0.019743
559.2044	0.020651
559.8823	0.021769
560.5603	0.022275
561.2384	0.026496
561.9166	0.028226
562.5949	0.026939
563.2733	0.029007
563.9519	0.030399
564.6305	0.032615
565.3092	0.033775
565.9880	0.032551
566.6669	0.033184
567.3459	0.036750
568.0250	0.045381
568.7043	0.051078
569.3836	0.058843
570.0630	0.078509
570.7425	0.087034
571.4221	0.101762
572.1018	0.105602
572.7816	0.109084
573.4615	0.103028
574.1415	0.129151
574.8216	0.144892
575.5018	0.146496
576.1821	0.133329
576.8626	0.145103
577.5431	0.156075
578.2237	0.211612
578.9044	0.178337
579.5851	0.159409
580.2660	0.173526
580.9470	0.165697
581.6281	0.246893
582.3093	0.262887
582.9906	0.215389
583.6720	0.170086
584.3535	0.156983
585.0351	0.175952
585.7167	0.198129
586.3985	0.181417
587.0804	0.169263
587.7624	0.190469
588.4445	0.169453
589.1266	0.157130
589.8089	0.133898
590.4913	0.127252
591.1737	0.114887
591.8563	0.112376
592.5389	0.110308
593.2217	0.167575
593.9046	0.166415
594.5875	0.142676
595.2705	0.163292
595.9537	0.151074
596.6369	0.127399
597.3203	0.122019
598.0037	0.122356
598.6872	0.114844
599.3709	0.157932
600.0546	0.149365
600.7384	0.154007
601.4223	0.157341
602.1064	0.138920
602.7905	0.140440
603.4747	0.154619
604.1590	0.153353
604.8434	0.134975
605.5279	0.131598
606.2125	0.146622
606.8972	0.130227
607.5819	0.130586
608.2668	0.129615
608.9518	0.120056
609.6369	0.109485
610.3220	0.121765
611.0073	0.120035
611.6927	0.114085
612.3781	0.112418
613.0637	0.109021
613.7493	0.105455
614.4351	0.107459
615.1209	0.105855
615.8068	0.111321
616.4929	0.099082
617.1790	0.089903
617.8652	0.091465
618.5515	0.088679
619.2379	0.077348
619.9244	0.076124
620.6110	0.080513
621.2977	0.065574
621.9845	0.065025
622.6714	0.069457
623.3584	0.073782
624.0454	0.074732
624.7326	0.074268
625.4199	0.073128
626.1072	0.067579
626.7947	0.060088
627.4822	0.059328
628.1698	0.057345
628.8576	0.050993
629.5454	0.051690
630.2333	0.053293
630.9213	0.049559
631.6094	0.043397
632.2976	0.044410
632.9859	0.037848
633.6743	0.034218
634.3628	0.036265
635.0514	0.035252
635.7400	0.036265
636.4288	0.037088
637.1177	0.038249
637.8066	0.032826
638.4957	0.034915
639.1848	0.035759
639.8740	0.032039
640.5633	0.031579
641.2528	0.027975
641.9423	0.027370
642.6319	0.023939
643.3216	0.024814
644.0113	0.024769
644.7012	0.022303
645.3912	0.024573
646.0812	0.023629
646.7714	0.020540
647.4616	0.019916
648.1520	0.024137
648.8424	0.027159
649.5329	0.026776
650.2236	0.028072
650.9143	0.024482
651.6051	0.023517
652.2960	0.025668
652.9870	0.027153
653.6780	0.027235
654.3692	0.028931
655.0605	0.033750
655.7518	0.401719
656.4433	1.000000
657.1348	0.903828
657.8264	0.514813
658.5181	0.370946
659.2099	0.302344
659.9018	0.102085
660.5938	0.027811
661.2859	0.021922
661.9781	0.019082
662.6704	0.019625
663.3627	0.018672
664.0552	0.016888
664.7477	0.018878
665.4403	0.018775
666.1330	0.018549
666.8259	0.018156
667.5188	0.018122
668.2117	0.016068
668.9048	0.018688
669.5980	0.017296
670.2913	0.019701
670.9846	0.018941
671.6781	0.020524
672.3716	0.027930
673.0652	0.028627
673.7589	0.024681
674.4527	0.026622
675.1466	0.022402
675.8406	0.023098
676.5347	0.020693
677.2288	0.018562
677.9231	0.022676
678.6174	0.024596
679.3119	0.028331
680.0064	0.030167
680.7010	0.031138
681.3957	0.027192
682.0905	0.027002
682.7854	0.026728
683.4803	0.025926
684.1754	0.027572
684.8705	0.031159
685.5658	0.034493
686.2611	0.037468
686.9565	0.033606
687.6520	0.037194
688.3476	0.034408
689.0433	0.030462
689.7390	0.029513
690.4349	0.028500
691.1308	0.029766
691.8269	0.031560
692.5230	0.031560
693.2192	0.033248
693.9155	0.031328
694.6119	0.029914
695.3083	0.029007
696.0049	0.024153
696.7016	0.025293
697.3983	0.032931
698.0951	0.031644
698.7920	0.031391
699.4890	0.029365
700.1861	0.029028
700.8833	0.025504
701.5806	0.022740
702.2779	0.024364
702.9753	0.021368
703.6729	0.024512
704.3705	0.023942
705.0682	0.022381
705.7660	0.018878
706.4638	0.022951
707.1618	0.029977
707.8599	0.032003
708.5580	0.033079
709.2562	0.033311
709.9545	0.029302
710.6529	0.029344
711.3514	0.027508
712.0500	0.025926
712.7486	0.025251
713.4474	0.024111
714.1462	0.028669
714.8451	0.029661
715.5441	0.031074
716.2432	0.025757
716.9424	0.024871
717.6416	0.022824
718.3410	0.024301
719.0404	0.023626
719.7399	0.025715
720.4395	0.023204
721.1392	0.025166
721.8390	0.025841
722.5388	0.024702
723.2388	0.021241
723.9388	0.023626
724.6389	0.020904
725.3391	0.024829
726.0394	0.027361
726.7398	0.026981
727.4403	0.025841
728.1408	0.028500
728.8414	0.029344
729.5421	0.031475
730.2429	0.030695
730.9438	0.033206
731.6448	0.036033
732.3458	0.033754
733.0470	0.036054
733.7482	0.036772
734.4495	0.040570
735.1509	0.040886
735.8524	0.039367
736.5539	0.039810
737.2556	0.038797
737.9573	0.037616
738.6591	0.033923
739.3610	0.035695
740.0630	0.035337
740.7651	0.033121
741.4672	0.031771
742.1695	0.029703
742.8718	0.029682
743.5742	0.026242
744.2767	0.025187
744.9792	0.023309
745.6819	0.023731
746.3846	0.022233
747.0874	0.021748
747.7903	0.027276
748.4933	0.024997
749.1964	0.024976
749.8995	0.028352
750.6028	0.033754
751.3061	0.031496
752.0095	0.033712
752.7130	0.031349
753.4166	0.029682
754.1202	0.035041
754.8239	0.032720
755.5278	0.034155
756.2317	0.035885
756.9356	0.041266
757.6397	0.049052
758.3438	0.049516
759.0481	0.045887
759.7524	0.047997
760.4568	0.051247
761.1613	0.051584
761.8658	0.048187
762.5705	0.039726
763.2752	0.040401
763.9800	0.042089
764.6849	0.046647
765.3898	0.052006
766.0949	0.043840
766.8000	0.037848
767.5052	0.031349
768.2105	0.033712
768.9159	0.038544
769.6214	0.040696
770.3269	0.036012
771.0325	0.037911
771.7382	0.040084
772.4440	0.035759
773.1499	0.035252
773.8558	0.032193
774.5618	0.029872
775.2679	0.024744
775.9741	0.023689
776.6804	0.020777
777.3868	0.020841
778.0932	0.020186
778.7997	0.021537
779.5063	0.023689
780.2130	0.026411
780.9197	0.022782
781.6265	0.028458
782.3335	0.028057
783.0405	0.031243
783.7475	0.028521
784.4547	0.029133
785.1619	0.021938
785.8692	0.023668
786.5766	0.024449
787.2841	0.023394
787.9917	0.024639
788.6993	0.025356
789.4070	0.026896
790.1148	0.022908
790.8227	0.022233
791.5306	0.022001
792.2387	0.020250
792.9468	0.019385
793.6550	0.018477
794.3632	0.024512
795.0716	0.027297
795.7800	0.024913
796.4885	0.021853
797.1971	0.017106
797.9058	0.020524
798.6145	0.019828
799.3233	0.019828
800.0322	0.017485
800.7412	0.016599
801.4503	0.017464
802.1594	0.015502
802.8686	0.016093
803.5779	0.014890
804.2873	0.014616
804.9968	0.014721
805.7063	0.013413
806.4159	0.017929
807.1256	0.022360
807.8354	0.018963
808.5452	0.019870
809.2551	0.018941
809.9651	0.018140
810.6752	0.015122
811.3853	0.015671
812.0956	0.014679
812.8059	0.012886
813.5163	0.012105
814.2267	0.016030
814.9373	0.014700
815.6479	0.011999
816.3586	0.011852
817.0694	0.012886
817.7802	0.012147
818.4912	0.012020
819.2022	0.012147
819.9133	0.009784
820.6244	0.012653
821.3357	0.013476
822.0470	0.011957
822.7584	0.011556
823.4698	0.009678
824.1814	0.009172
824.8930	0.008539
825.6047	0.010522
826.3165	0.010733
827.0283	0.009615
827.7402	0.011155
828.4522	0.010353
829.1643	0.011176
829.8765	0.010290
830.5887	0.009488
831.3010	0.006703
832.0134	0.006745
832.7259	0.005796
833.4384	0.008876
834.1510	0.008539
834.8637	0.010670
835.5765	0.007842
836.2893	0.007020
837.0022	0.007526
837.7152	0.006365
838.4283	0.006893
839.1414	0.005901
839.8546	0.007294
840.5679	0.006598
841.2813	0.005078
841.9947	0.005458
842.7082	0.005205
843.4218	0.004150
844.1355	0.005606
844.8492	0.002546
845.5631	0.004023
846.2770	0.004909
846.9909	0.003833
847.7050	0.002947
848.4191	0.005374
849.1333	0.004487
849.8475	0.003390
850.5619	0.004931
851.2763	0.002799
851.9908	0.004804
852.7053	0.006492
853.4200	0.010058
854.1347	0.011641
854.8495	0.012126
855.5643	0.011345
856.2792	0.010628
856.9942	0.010058
857.7093	0.009320
858.4245	0.009931
859.1397	0.008370
859.8550	0.008286
860.5704	0.007252
861.2858	0.004698
862.0013	0.006619
862.7169	0.005521
863.4326	0.005078
864.1483	0.004424
864.8642	0.004551
865.5800	0.003264
866.2960	0.005078
867.0120	0.003770
867.7281	0.004340
868.4443	0.005289
869.1606	0.004804
869.8769	0.002778
870.5933	0.004108
871.3097	0.005120
872.0263	0.004129
872.7429	0.003918
873.4596	0.004466
874.1763	0.003053
874.8932	0.003939
875.6101	0.003390
876.3270	0.006007
877.0441	0.006386
877.7612	0.006070
878.4784	0.006197
879.1957	0.005585
879.9130	0.005711
880.6304	0.004720
881.3479	0.005711
882.0654	0.004551
882.7831	0.005395
883.5007	0.005395
884.2185	0.006408
884.9363	0.004952
885.6542	0.004804
886.3722	0.006935
887.0903	0.004677
887.8084	0.003517
888.5266	0.005268
889.2448	0.003664
889.9632	0.003158
890.6816	0.003264
891.4001	0.002546
892.1186	0.003517
892.8372	0.004931
893.5559	0.004466
894.2747	0.003200
894.9935	0.002166
895.7124	0.004255
896.4314	0.003686
897.1504	0.003643
897.8695	0.003242
898.5887	0.003095
899.3079	0.002103
900.0272	0.003221
900.7466	0.002778
901.4661	0.003876
902.1856	0.003981
902.9052	0.004129
903.6249	0.002441
904.3446	0.002842
905.0644	0.003833
905.7843	0.005289
906.5043	0.003791
907.2243	0.003517
907.9444	0.003749
908.6645	0.003411
909.3847	0.002040
910.1050	0.002420
910.8254	0.002124
911.5458	0.003960
912.2663	0.002609
912.9869	0.003749
913.7075	0.001934
914.4283	0.003200
915.1490	0.002546
915.8699	0.003264
916.5908	0.003095
917.3118	0.002546
918.0328	0.003264
918.7539	0.003601
919.4751	0.002209
920.1964	0.002989
920.9177	0.001871
921.6391	0.002736
922.3606	0.002314
923.0821	0.001681
923.8037	0.002968
924.5254	0.001154
925.2471	0.001723
925.9689	0.004909
926.6908	0.001259
927.4127	0.001217
928.1347	0.001829
928.8568	0.003538
929.5789	0.001343
930.3011	0.001238
931.0234	0.000014
931.7457	0.001428
932.4681	-0.000007
933.1906	0.000985
933.9131	0.000520
934.6358	0.002230
935.3584	0.001175
936.0812	0.000795
936.8040	0.001006
937.5269	0.002483
938.2498	0.003095
938.9728	0.000204
939.6959	-0.000007
940.4190	0.000795
941.1422	-0.000155
941.8655	0.000415
942.5889	0.000225
943.3123	0.000520
944.0357	-0.000302
944.7593	0.000816
945.4829	0.000985
946.2066	0.001449
946.9303	0.001154
947.6541	0.001069
948.3780	0.001343
949.1019	0.000753
949.8259	0.001998
950.5500	-0.000598
951.2741	0.000985
951.9983	0.000077
952.7226	0.001554
953.4469	0.000563
954.1713	0.001892
954.8958	0.001196
955.6203	0.001175
956.3449	0.000520
957.0696	0.000879
957.7943	0.000141
958.5191	0.000710
959.2439	0.000373
959.9688	0.000267
960.6938	0.001998
961.4189	0.001048
962.1440	-0.000239
962.8692	0.000584
963.5944	-0.000345
964.3197	-0.000176
965.0451	0.000563
965.7705	0.000647
966.4960	0.000056
967.2216	0.000858
967.9472	-0.001020
968.6729	0.001554
969.3987	-0.001062
970.1245	-0.000281
970.8504	-0.000345
971.5763	0.001006
972.3023	-0.001716
973.0284	0.000668
973.7545	-0.001231
974.4807	-0.000535
975.2070	-0.000661
975.9333	-0.000028
976.6597	0.000795
977.3862	0.000605
978.1127	0.000014
978.8393	0.001132
979.5659	-0.000113
980.2926	0.000394
981.0194	0.000098
981.7462	0.000520
982.4731	-0.000724
983.2001	0.001913
983.9271	0.000120
984.6542	-0.001168
985.3814	0.000120
986.1086	0.000795
986.8358	0.000225
987.5632	0.000056
988.2906	-0.000914
989.0180	0.000035
989.7456	-0.000935
990.4732	-0.000260
991.2008	-0.000049
991.9285	0.000689
992.6563	0.000964
993.3841	0.000499
994.1120	-0.000197
994.8400	0.000753
995.5680	0.000478
996.2961	0.001196
997.0242	-0.000682
997.7524	-0.000682
998.4807	0.000900
999.2090	0.000373
999.9374	0.000436
1000.67	-0.001421
1001.39	0.000267
1002.12	-0.000851
1002.85	0.001027
1003.58	0.000858
1004.31	-0.000640
1005.04	-0.000429
1005.77	0.000626
1006.5	0.000647
1007.22	0.001196
1007.95	-0.000429
1008.68	-0.000049
1009.41	-0.000366
1010.14	0.000267
1010.87	0.000689
1011.6	0.000563
1012.33	-0.001547
1013.06	0.000267
1013.79	0.000056
1014.52	-0.000535
1015.25	0.000816
1015.98	-0.000893
1016.71	0.001765
1017.44	-0.000091
1018.17	0.000098
1018.9	0.000309
1019.63	-0.001252
1020.36	0.001027
1021.09	0.001048
1021.82	0.000563
1022.55	-0.001041
1023.03	0.000246