File: Auto_Polymerization/Data/UV_VIS_Spectra/MRG-061-F5_spectra_while_stopped_with_alu_foil/spectrum_2025-06-20_09-16-54.txt
# Wavelength (nm)	Intensity (a.u.)
197.7802	0.001615
198.3922	0.001615
199.0044	0.001298
199.6168	0.001003
200.2292	0.001678
200.8418	0.001572
201.4546	0.001130
202.0674	0.000476
202.6805	0.002226
203.2936	0.001024
203.9069	0.001340
204.5203	0.001214
205.1338	0.000476
205.7475	-0.000325
206.3614	0.001467
206.9753	-0.000009
207.5894	0.001446
208.2036	-0.000852
208.8180	0.001256
209.4325	0.000476
210.0471	0.000835
210.6618	0.000286
211.2767	0.000497
211.8918	0.000687
212.5069	0.000624
213.1222	0.000012
213.7376	0.000076
214.3532	0.001446
214.9689	0.000687
215.5847	-0.000683
216.2007	-0.000367
216.8168	0.000012
217.4330	0.000940
218.0494	0.000371
218.6659	0.000265
219.2825	0.000750
219.8992	0.000624
220.5161	0.001636
221.1332	-0.000156
221.7503	0.001172
222.3676	0.000223
222.9850	-0.000051
223.6026	0.000940
224.2203	0.000982
224.8381	0.001931
225.4561	0.000160
226.0742	0.000898
226.6924	0.000202
227.3107	0.000792
227.9292	0.001193
228.5478	-0.000283
229.1666	0.000518
229.7855	0.001003
230.4045	-0.000325
231.0236	0.000329
231.6429	0.001446
232.2623	0.001446
232.8818	-0.000135
233.5015	0.001593
234.1213	-0.000768
234.7413	0.000497
235.3613	0.000687
235.9815	0.000160
236.6018	0.000771
237.2223	0.001846
237.8429	0.002184
238.4636	0.001973
239.0845	0.001319
239.7055	0.000181
240.3266	0.000076
240.9478	0.001783
241.5692	0.000329
242.1907	0.000223
242.8124	-0.000388
243.4341	0.001488
244.0560	-0.000936
244.6781	0.001172
245.3002	0.002057
245.9225	0.000771
246.5449	-0.000768
247.1675	0.001720
247.7902	0.000329
248.4130	0.000771
249.0359	0.001130
249.6590	0.001066
250.2822	-0.000979
250.9056	-0.000199
251.5290	0.001846
252.1526	-0.000367
252.7763	0.000961
253.4002	0.000729
254.0242	0.000033
254.6483	0.002247
255.2725	-0.000051
255.8969	0.001636
256.5214	0.001362
257.1460	0.000560
257.7708	-0.000241
258.3957	0.001383
259.0207	0.001193
259.6459	0.000877
260.2711	0.001446
260.8965	0.001277
261.5221	0.000413
262.1477	0.001362
262.7735	0.001277
263.3995	0.001699
264.0255	0.000898
264.6517	0.001425
265.2780	0.000582
265.9044	0.001467
266.5310	0.001404
267.1577	0.002479
267.7845	0.001298
268.4114	0.000392
269.0385	0.000497
269.6657	0.001130
270.2931	0.000329
270.9205	0.000497
271.5481	-0.000156
272.1758	0.000181
272.8037	0.000771
273.4316	0.000202
274.0597	0.001572
274.6880	0.001530
275.3163	0.000455
275.9448	0.000518
276.5734	0.000666
277.2022	0.001446
277.8310	0.000940
278.4600	0.000181
279.0891	0.000835
279.7184	0.000771
280.3477	0.000139
280.9772	0.002142
281.6069	0.000160
282.2366	0.001593
282.8665	0.001362
283.4965	0.001467
284.1266	-0.001147
284.7569	-0.000030
285.3873	0.000518
286.0178	0.000813
286.6484	0.000329
287.2792	0.001467
287.9101	0.000054
288.5411	0.001024
289.1723	0.001130
289.8035	0.000856
290.4349	0.000813
291.0665	0.002015
291.6981	0.001509
292.3299	0.001868
292.9618	0.000560
293.5938	0.001066
294.2260	0.000097
294.8582	0.000624
295.4906	-0.000599
296.1232	0.000645
296.7558	0.000729
297.3886	0.000518
298.0215	0.000919
298.6545	0.001762
299.2877	-0.000072
299.9210	0.001130
300.5544	0.000624
301.1879	0.000624
301.8215	0.001404
302.4553	0.001256
303.0892	0.000687
303.7233	0.001340
304.3574	0.000898
304.9917	0.000539
305.6261	0.000265
306.2606	0.000033
306.8953	-0.001126
307.5301	0.001003
308.1650	0.000455
308.8000	0.001256
309.4351	0.000898
310.0704	0.001973
310.7058	0.001910
311.3413	0.002352
311.9770	0.000413
312.6127	0.000139
313.2486	0.000835
313.8846	0.001530
314.5208	0.000898
315.1570	0.001172
315.7934	-0.000346
316.4299	0.000181
317.0666	0.001615
317.7033	0.001593
318.3402	-0.000557
318.9772	0.002057
319.6143	0.001340
320.2516	0.000097
320.8890	0.000835
321.5265	0.000434
322.1641	0.000940
322.8018	0.001088
323.4397	-0.000072
324.0777	0.002395
324.7158	0.000497
325.3540	0.000202
325.9924	0.001193
326.6308	0.000708
327.2694	0.000687
327.9082	0.000919
328.5470	0.001088
329.1860	0.001783
329.8251	-0.000262
330.4643	0.001003
331.1036	0.001593
331.7431	0.001615
332.3826	0.000497
333.0223	0.000097
333.6622	0.001383
334.3021	0.000518
334.9422	0.001868
335.5823	0.000223
336.2227	0.000371
336.8631	-0.000409
337.5036	0.000097
338.1443	-0.000072
338.7851	0.001319
339.4260	0.001783
340.0670	0.000813
340.7082	0.000223
341.3495	0.001551
341.9909	0.000982
342.6324	0.001298
343.2740	0.002036
343.9158	0.002036
344.5577	0.000750
345.1997	0.000792
345.8418	0.001910
346.4840	0.000455
347.1264	0.001572
347.7689	0.000539
348.4115	0.001973
349.0542	0.000603
349.6971	0.001214
350.3400	0.001045
350.9831	0.000792
351.6263	0.001151
352.2696	0.002142
352.9131	0.000329
353.5566	0.000097
354.2003	0.000097
354.8441	0.001804
355.4881	0.001678
356.1321	0.000835
356.7763	0.000687
357.4206	0.001636
358.0650	0.000687
358.7095	0.001024
359.3541	-0.000325
359.9989	0.001783
360.6438	0.000877
361.2888	0.002395
361.9339	0.001509
362.5791	0.000708
363.2245	0.001088
363.8699	0.001362
364.5155	0.001088
365.1612	0.001762
365.8071	-0.000156
366.4530	0.002015
367.0991	0.001298
367.7453	0.000940
368.3916	-0.000199
369.0380	0.000160
369.6845	-0.000388
370.3312	-0.000072
370.9780	0.000708
371.6249	0.000560
372.2719	0.001973
372.9190	0.001488
373.5663	0.000560
374.2136	0.001804
374.8611	0.000940
375.5087	0.001846
376.1564	0.000603
376.8043	-0.000262
377.4522	0.000097
378.1003	0.001066
378.7485	0.000835
379.3968	0.001193
380.0452	0.000097
380.6938	0.001657
381.3424	0.001340
381.9912	0.001298
382.6401	0.001024
383.2891	0.000160
383.9382	0.002395
384.5875	0.000687
385.2368	0.001088
385.8863	0.001488
386.5359	0.000835
387.1856	0.001741
387.8355	0.001383
388.4854	0.002563
389.1355	0.002584
389.7856	0.003828
390.4359	0.003744
391.0863	0.004292
391.7369	0.004545
392.3875	0.006442
393.0383	0.004735
393.6891	0.008487
394.3401	0.006906
394.9912	0.007939
395.6425	0.007265
396.2938	0.008698
396.9453	0.010406
397.5968	0.012303
398.2485	0.012388
398.9003	0.013400
399.5522	0.014159
400.2043	0.013315
400.8564	0.014897
401.5087	0.013632
402.1610	0.015255
402.8135	0.016520
403.4661	0.017363
404.1189	0.018207
404.7717	0.017806
405.4246	0.021264
406.0777	0.019661
406.7309	0.019050
407.3842	0.018143
408.0376	0.017384
408.6911	0.020083
409.3448	0.019598
409.9985	0.019050
410.6524	0.017869
411.3064	0.020568
411.9605	0.021074
412.6147	0.021938
413.2690	0.022086
413.9234	0.022781
414.5780	0.021685
415.2326	0.022739
415.8874	0.022297
416.5423	0.022001
417.1973	0.024067
417.8524	0.022381
418.5077	0.023056
419.1630	0.025543
419.8185	0.023414
420.4741	0.024932
421.1298	0.025290
421.7856	0.029507
422.4415	0.027420
423.0975	0.027736
423.7536	0.024784
424.4099	0.024447
425.0663	0.026534
425.7228	0.024869
426.3793	0.023372
427.0361	0.024363
427.6929	0.026661
428.3498	0.025079
429.0068	0.023456
429.6640	0.026745
430.3213	0.028558
430.9787	0.027841
431.6362	0.022887
432.2938	0.023245
432.9515	0.022507
433.6093	0.025775
434.2673	0.026155
434.9253	0.024468
435.5835	0.024489
436.2418	0.025522
436.9001	0.025796
437.5586	0.023899
438.2173	0.024974
438.8760	0.023625
439.5348	0.025691
440.1938	0.024405
440.8528	0.023857
441.5120	0.028537
442.1713	0.029169
442.8307	0.027272
443.4902	0.026850
444.1498	0.027441
444.8095	0.026513
445.4694	0.027251
446.1293	0.025332
446.7894	0.026365
447.4496	0.024046
448.1098	0.023815
448.7702	0.022107
449.4307	0.022486
450.0914	0.023013
450.7521	0.022550
451.4129	0.019366
452.0739	0.021727
452.7349	0.021453
453.3961	0.019851
454.0574	0.019240
454.7188	0.018101
455.3803	0.016393
456.0419	0.018691
456.7036	0.015951
457.3654	0.017996
458.0274	0.017426
458.6894	0.017131
459.3516	0.016963
460.0138	0.017363
460.6762	0.015107
461.3387	0.017300
462.0013	0.014032
462.6640	0.015719
463.3268	0.013969
463.9897	0.011882
464.6528	0.015403
465.3159	0.015255
465.9792	0.015023
466.6425	0.012008
467.3060	0.013463
467.9696	0.011587
468.6333	0.010996
469.2970	0.009099
469.9610	0.010975
470.6250	0.009689
471.2891	0.008804
471.9533	0.010975
472.6177	0.008846
473.2821	0.007012
473.9467	0.009499
474.6113	0.007075
475.2761	0.009521
475.9410	0.010132
476.6060	0.009183
477.2711	0.008045
477.9363	0.006506
478.6016	0.006717
479.2670	0.007560
479.9325	0.007307
480.5982	0.005662
481.2639	0.006864
481.9298	0.007497
482.5957	0.007876
483.2618	0.006063
483.9280	0.005536
484.5943	0.007096
485.2606	0.006021
485.9271	0.016963
486.5937	0.013336
487.2605	0.009310
487.9273	0.006421
488.5942	0.005114
489.2612	0.003575
489.9284	0.006000
490.5956	0.003343
491.2630	0.003765
491.9304	0.004882
492.5980	0.004334
493.2657	0.004566
493.9334	0.004714
494.6013	0.003364
495.2693	0.003955
495.9374	0.003575
496.6056	0.004018
497.2739	0.002163
497.9423	0.003681
498.6109	0.004313
499.2795	0.003407
499.9482	0.004397
500.6171	0.003343
501.2860	0.002985
501.9551	0.004166
502.6242	0.002184
503.2935	0.002880
503.9628	0.003428
504.6323	0.003554
505.3019	0.003976
505.9716	0.004988
506.6414	0.003870
507.3113	0.004060
507.9813	0.003512
508.6514	0.002331
509.3216	0.003617
509.9919	0.002184
510.6623	0.002627
511.3329	0.004608
512.0035	0.004229
512.6742	0.003238
513.3451	0.003196
514.0160	0.002521
514.6871	0.003913
515.3582	0.003512
516.0295	0.003470
516.7008	0.003259
517.3723	0.003744
518.0439	0.004081
518.7155	0.003470
519.3873	0.003638
520.0592	0.001889
520.7312	0.002795
521.4033	0.003027
522.0755	0.003491
522.7478	0.003069
523.4202	0.002310
524.0927	0.004376
524.7653	0.004397
525.4380	0.004693
526.1108	0.003891
526.7837	0.004144
527.4568	0.004967
528.1299	0.005325
528.8031	0.004882
529.4765	0.003955
530.1499	0.005051
530.8234	0.005473
531.4971	0.004355
532.1708	0.005599
532.8447	0.005894
533.5186	0.006189
534.1927	0.007939
534.8668	0.006738
535.5411	0.007349
536.2155	0.008825
536.8899	0.007581
537.5645	0.007286
538.2392	0.008171
538.9139	0.010596
539.5888	0.009268
540.2638	0.011207
540.9389	0.009900
541.6140	0.010975
542.2893	0.010954
542.9647	0.011123
543.6402	0.010785
544.3158	0.013421
544.9915	0.013842
545.6673	0.014327
546.3432	0.012156
547.0192	0.013231
547.6953	0.017279
548.3715	0.017827
549.0478	0.017848
549.7242	0.015909
550.4007	0.016963
551.0773	0.015529
551.7540	0.016415
552.4308	0.020399
553.1077	0.019598
553.7847	0.022655
554.4618	0.020589
555.1390	0.022233
555.8163	0.020505
556.4937	0.026049
557.1712	0.023962
557.8488	0.023562
558.5266	0.021495
559.2044	0.022044
559.8823	0.023140
560.5603	0.028158
561.2384	0.030540
561.9166	0.030772
562.5949	0.028938
563.2733	0.030181
563.9519	0.029233
564.6305	0.032142
565.3092	0.035389
565.9880	0.034735
566.6669	0.036253
567.3459	0.044370
568.0250	0.048903
568.7043	0.055038
569.3836	0.064462
570.0630	0.087547
570.7425	0.091363
571.4221	0.107828
572.1018	0.119234
572.7816	0.105636
573.4615	0.120984
574.1415	0.135763
574.8216	0.149150
575.5018	0.150774
576.1821	0.135278
576.8626	0.150731
577.5431	0.166670
578.2237	0.206811
578.9044	0.171898
579.5851	0.171730
580.2660	0.181828
580.9470	0.175525
581.6281	0.276615
582.3093	0.261162
582.9906	0.203986
583.6720	0.165257
584.3535	0.166122
585.0351	0.189924
585.7167	0.198462
586.3985	0.176663
587.0804	0.180648
587.7624	0.188322
588.4445	0.169853
589.1266	0.152545
589.8089	0.138040
590.4913	0.122397
591.1737	0.110822
591.8563	0.111075
592.5389	0.129354
593.2217	0.171456
593.9046	0.165068
594.5875	0.145819
595.2705	0.165447
595.9537	0.143753
596.6369	0.121912
597.3203	0.127983
598.0037	0.122839
598.6872	0.131188
599.3709	0.156698
600.0546	0.153114
600.7384	0.152081
601.4223	0.155159
602.1064	0.140823
602.7905	0.149256
603.4747	0.158258
604.1590	0.149677
604.8434	0.135679
605.5279	0.137702
606.2125	0.146620
606.8972	0.130808
607.5819	0.131926
608.2668	0.130387
608.9518	0.120836
609.6369	0.113858
610.3220	0.131462
611.0073	0.118644
611.6927	0.119150
612.3781	0.110000
613.0637	0.112846
613.7493	0.107660
614.4351	0.108967
615.1209	0.108777
615.8068	0.113584
616.4929	0.097751
617.1790	0.093260
617.8652	0.093218
618.5515	0.092206
619.2379	0.079810
619.9244	0.077659
620.6110	0.081286
621.2977	0.062396
621.9845	0.069943
622.6714	0.071313
623.3584	0.074349
624.0454	0.075382
624.7326	0.075635
625.4199	0.070765
626.1072	0.067961
626.7947	0.060667
627.4822	0.063218
628.1698	0.056935
628.8576	0.049240
629.5454	0.055586
630.2333	0.049725
630.9213	0.048587
631.6094	0.047722
632.2976	0.043232
632.9859	0.038783
633.6743	0.040090
634.3628	0.035684
635.0514	0.033850
635.7400	0.035747
636.4288	0.039964
637.1177	0.039437
637.8066	0.036633
638.4957	0.036443
639.1848	0.036063
639.8740	0.033008
640.5633	0.032379
641.2528	0.030947
641.9423	0.028171
642.6319	0.025768
643.3216	0.027831
644.0113	0.024467
644.7012	0.023731
645.3912	0.022940
646.0812	0.022316
646.7714	0.022940
647.4616	0.020406
648.1520	0.025562
648.8424	0.029702
649.5329	0.030000
650.2236	0.027079
650.9143	0.024735
651.6051	0.024976
652.2960	0.027101
652.9870	0.028000
653.6780	0.028558
654.3692	0.028333
655.0605	0.049188
655.7518	0.803116
656.4433	1.006725
657.1348	0.742805
657.8264	0.447177
658.5181	0.335638
659.2099	0.245424
659.9018	0.063699
660.5938	0.025932
661.2859	0.020549
661.9781	0.020692
662.6704	0.020603
663.3627	0.019602
664.0552	0.019766
664.7477	0.021502
665.4403	0.022236
666.1330	0.021908
666.8259	0.018349
667.5188	0.016673
668.2117	0.018248
668.9048	0.019008
669.5980	0.019113
670.2913	0.019366
670.9846	0.020399
671.6781	0.024447
672.3716	0.031109
673.0652	0.028663
673.7589	0.026829
674.4527	0.025459
675.1466	0.023878
675.8406	0.022697
676.5347	0.022465
677.2288	0.020568
677.9231	0.024721
678.6174	0.026935
679.3119	0.027335
680.0064	0.028115
680.7010	0.029928
681.3957	0.030877
682.0905	0.028136
682.7854	0.027757
683.4803	0.027103
684.1754	0.026893
684.8705	0.033744
685.5658	0.038593
686.2611	0.038593
686.9565	0.035832
687.6520	0.039226
688.3476	0.034503
689.0433	0.030456
689.7390	0.031278
690.4349	0.028368
691.1308	0.031552
691.8269	0.032121
692.5230	0.031088
693.2192	0.033386
693.9155	0.031973
694.6119	0.027335
695.3083	0.029422
696.0049	0.027989
696.7016	0.029907
697.3983	0.033006
698.0951	0.034672
698.7920	0.032627
699.4890	0.030540
700.1861	0.029254
700.8833	0.025649
701.5806	0.025016
702.2779	0.027082
702.9753	0.026281
703.6729	0.024700
704.3705	0.024805
705.0682	0.022254
705.7660	0.020821
706.4638	0.025607
707.1618	0.032543
707.8599	0.031510
708.5580	0.033512
709.2562	0.028600
709.9545	0.029928
710.6529	0.030519
711.3514	0.028516
712.0500	0.024257
712.7486	0.024890
713.4474	0.027715
714.1462	0.029359
714.8451	0.030371
715.5441	0.029422
716.2432	0.025670
716.9424	0.023646
717.6416	0.023351
718.3410	0.025944
719.0404	0.025459
719.7399	0.025290
720.4395	0.023203
721.1392	0.025564
721.8390	0.024173
722.5388	0.023393
723.2388	0.023899
723.9388	0.023941
724.6389	0.022845
725.3391	0.028727
726.0394	0.027040
726.7398	0.028916
727.4403	0.027483
728.1408	0.028410
728.8414	0.030772
729.5421	0.031130
730.2429	0.031552
730.9438	0.036021
731.6448	0.037476
732.3458	0.035178
733.0470	0.036295
733.7482	0.038003
734.4495	0.044665
735.1509	0.042030
735.8524	0.043759
736.5539	0.040955
737.2556	0.043253
737.9573	0.036780
738.6591	0.033238
739.3610	0.039015
740.0630	0.038066
740.7651	0.035684
741.4672	0.032205
742.1695	0.030160
742.8718	0.031067
743.5742	0.027673
744.2767	0.026239
744.9792	0.024679
745.6819	0.024616
746.3846	0.025332
747.0874	0.026239
747.7903	0.028410
748.4933	0.025944
749.1964	0.027399
749.8995	0.030856
750.6028	0.036970
751.3061	0.032985
752.0095	0.033892
752.7130	0.030392
753.4166	0.033006
754.1202	0.035789
754.8239	0.035178
755.5278	0.035262
756.2317	0.039774
756.9356	0.043021
757.6397	0.049282
758.3438	0.049409
759.0481	0.045382
759.7524	0.050041
760.4568	0.053225
761.1613	0.053267
761.8658	0.043759
762.5705	0.040470
763.2752	0.041397
763.9800	0.040891
764.6849	0.050104
765.3898	0.048903
766.0949	0.043105
766.8000	0.036274
767.5052	0.033997
768.2105	0.035789
768.9159	0.041060
769.6214	0.041819
770.3269	0.036696
771.0325	0.041819
771.7382	0.038130
772.4440	0.036464
773.1499	0.033428
773.8558	0.033302
774.5618	0.029275
775.2679	0.025375
775.9741	0.023013
776.6804	0.020947
777.3868	0.022128
778.0932	0.020083
778.7997	0.024299
779.5063	0.027673
780.2130	0.025838
780.9197	0.027314
781.6265	0.031594
782.3335	0.030919
783.0405	0.028010
783.7475	0.030540
784.4547	0.024784
785.1619	0.025206
785.8692	0.025480
786.5766	0.026893
787.2841	0.024932
787.9917	0.024805
788.6993	0.027989
789.4070	0.024342
790.1148	0.024531
790.8227	0.021432
791.5306	0.021474
792.2387	0.017532
792.9468	0.019050
793.6550	0.020336
794.3632	0.025649
795.0716	0.026893
795.7800	0.026155
796.4885	0.021685
797.1971	0.019914
797.9058	0.020947
798.6145	0.020926
799.3233	0.018607
800.0322	0.017932
800.7412	0.016646
801.4503	0.018017
802.1594	0.015845
802.8686	0.014475
803.5779	0.016773
804.2873	0.015845
804.9968	0.015487
805.7063	0.015677
806.4159	0.019282
807.1256	0.021242
807.8354	0.019682
808.5452	0.017701
809.2551	0.019197
809.9651	0.015824
810.6752	0.016752
811.3853	0.015487
812.0956	0.014791
812.8059	0.013168
813.5163	0.014981
814.2267	0.018038
814.9373	0.017005
815.6479	0.013231
816.3586	0.012303
817.0694	0.012915
817.7802	0.012873
818.4912	0.011123
819.2022	0.010385
819.9133	0.011102
820.6244	0.012346
821.3357	0.014391
822.0470	0.012325
822.7584	0.010933
823.4698	0.010005
824.1814	0.011903
824.8930	0.009816
825.6047	0.011608
826.3165	0.010891
827.0283	0.012240
827.7402	0.011903
828.4522	0.011144
829.1643	0.012620
829.8765	0.011819
830.5887	0.009816
831.3010	0.008108
832.0134	0.007033
832.7259	0.007918
833.4384	0.008466
834.1510	0.010005
834.8637	0.008635
835.5765	0.008972
836.2893	0.008150
837.0022	0.006485
837.7152	0.006548
838.4283	0.006042
839.1414	0.005262
839.8546	0.006105
840.5679	0.007539
841.2813	0.006400
841.9947	0.005831
842.7082	0.006527
843.4218	0.004882
844.1355	0.005051
844.8492	0.004861
845.5631	0.005409
846.2770	0.006000
846.9909	0.005494
847.7050	0.003807
848.4191	0.005684
849.1333	0.004566
849.8475	0.005051
850.5619	0.004566
851.2763	0.003828
851.9908	0.006653
852.7053	0.007665
853.4200	0.011502
854.1347	0.012578
854.8495	0.013526
855.5643	0.012177
856.2792	0.012177
856.9942	0.010912
857.7093	0.009268
858.4245	0.008509
859.1397	0.008762
859.8550	0.008045
860.5704	0.007918
861.2858	0.007201
862.0013	0.006674
862.7169	0.005894
863.4326	0.005515
864.1483	0.007033
864.8642	0.004967
865.5800	0.006337
866.2960	0.005262
867.0120	0.006653
867.7281	0.004419
868.4443	0.004925
869.1606	0.003744
869.8769	0.003407
870.5933	0.004440
871.3097	0.005409
872.0263	0.004419
872.7429	0.005831
873.4596	0.004629
874.1763	0.005515
874.8932	0.004039
875.6101	0.004903
876.3270	0.004060
877.0441	0.003849
877.7612	0.006948
878.4784	0.006400
879.1957	0.006211
879.9130	0.006337
880.6304	0.007265
881.3479	0.006126
882.0654	0.007349
882.7831	0.007075
883.5007	0.006358
884.2185	0.005304
884.9363	0.006864
885.6542	0.005915
886.3722	0.007539
887.0903	0.006295
887.8084	0.005199
888.5266	0.005979
889.2448	0.004482
889.9632	0.002774
890.6816	0.002943
891.4001	0.003491
892.1186	0.005072
892.8372	0.004419
893.5559	0.004714
894.2747	0.004144
894.9935	0.004629
895.7124	0.003870
896.4314	0.004166
897.1504	0.005072
897.8695	0.004461
898.5887	0.005852
899.3079	0.003617
900.0272	0.004060
900.7466	0.004482
901.4661	0.004039
902.1856	0.005431
902.9052	0.004376
903.6249	0.004735
904.3446	0.004250
905.0644	0.005641
905.7843	0.003976
906.5043	0.004144
907.2243	0.002795
907.9444	0.005178
908.6645	0.004018
909.3847	0.004355
910.1050	0.003301
910.8254	0.003638
911.5458	0.004566
912.2663	0.005304
912.9869	0.005494
913.7075	0.004039
914.4283	0.003533
915.1490	0.002816
915.8699	0.002374
916.5908	0.004988
917.3118	0.004376
918.0328	0.005452
918.7539	0.004018
919.4751	0.003512
920.1964	0.004081
920.9177	0.003196
921.6391	0.004376
922.3606	0.003976
923.0821	0.002605
923.8037	0.002880
924.5254	0.002099
925.2471	0.003301
925.9689	0.002395
926.6908	0.002395
927.4127	0.001973
928.1347	0.003554
928.8568	0.002142
929.5789	0.002099
930.3011	0.002648
931.0234	0.003111
931.7457	0.002669
932.4681	0.002142
933.1906	0.003196
933.9131	0.000518
934.6358	0.002078
935.3584	0.002015
936.0812	0.001720
936.8040	0.002416
937.5269	0.002078
938.2498	0.000729
938.9728	0.002690
939.6959	0.001172
940.4190	0.002226
941.1422	0.001509
941.8655	0.001846
942.5889	0.003175
943.3123	0.001066
944.0357	0.000708
944.7593	0.001298
945.4829	0.000139
946.2066	0.001530
946.9303	0.000792
947.6541	0.001530
948.3780	0.001593
949.1019	0.001657
949.8259	0.001193
950.5500	0.001931
951.2741	0.001846
951.9983	0.000392
952.7226	0.001657
953.4469	0.001804
954.1713	0.001383
954.8958	0.001952
955.6203	0.001277
956.3449	0.002057
957.0696	0.001088
957.7943	0.002184
958.5191	0.000307
959.2439	0.002142
959.9688	0.000582
960.6938	0.001572
961.4189	-0.000072
962.1440	0.002205
962.8692	0.000898
963.5944	0.001109
964.3197	0.001509
965.0451	0.001277
965.7705	0.001488
966.4960	0.001214
967.2216	0.001172
967.9472	0.001446
968.6729	0.001952
969.3987	0.003955
970.1245	0.000982
970.8504	0.002690
971.5763	0.001109
972.3023	0.000708
973.0284	-0.000494
973.7545	0.000792
974.4807	0.000729
975.2070	0.001277
975.9333	0.001425
976.6597	0.002226
977.3862	0.001340
978.1127	0.001298
978.8393	0.001530
979.5659	0.000286
980.2926	0.000603
981.0194	0.000560
981.7462	0.001256
982.4731	0.001256
983.2001	0.001572
983.9271	0.001467
984.6542	0.002121
985.3814	0.001193
986.1086	0.001615
986.8358	0.000560
987.5632	-0.000515
988.2906	0.001804
989.0180	0.000898
989.7456	0.002521
990.4732	0.001446
991.2008	0.002858
991.9285	-0.001042
992.6563	0.000392
993.3841	0.001615
994.1120	0.000624
994.8400	-0.000051
995.5680	0.002690
996.2961	0.001298
997.0242	0.001572
997.7524	0.001362
998.4807	0.002142
999.2090	0.001256
999.9374	0.000539
1000.67	0.000771
1001.39	0.000223
1002.12	0.001825
1002.85	0.001298
1003.58	0.001931
1004.31	-0.001189
1005.04	0.001868
1005.77	0.000054
1006.5	0.001088
1007.22	0.000835
1007.95	0.001024
1008.68	0.001193
1009.41	0.001214
1010.14	0.000350
1010.87	0.001193
1011.6	0.001319
1012.33	0.002605
1013.06	0.000898
1013.79	0.002858
1014.52	0.001657
1015.25	0.000666
1015.98	0.001678
1016.71	0.001868
1017.44	0.000033
1018.17	0.001024
1018.9	-0.000747
1019.63	0.002142
1020.36	0.001446
1021.09	0.001256
1021.82	-0.000135
1022.55	-0.000452
1023.03	0.001003