File: Auto_Polymerization/Data/UV_VIS_Spectra/MRG-061-F5_spectra_while_stopped_with_alu_foil/spectrum_2025-06-20_09-42-28_absorbance.txt
# Wavelength	Absorbance
197.78 2.878522
198.392 2.682145
199.004 -0.035688
199.617 -0.196093
200.229 2.463893
200.842 2.902003
201.455 3.220892
202.067 2.760422
202.68 -0.024500
203.294 0.354140
203.907 0.414973
204.52 3.062958
205.134 0.129041
205.748 2.682145
206.361 -3.173478
206.975 2.294466
207.589 -2.824776
208.204 3.152288
208.818 2.495544
209.433 2.907949
210.047 1.050463
210.662 0.564017
211.277 2.907949
211.892 2.480007
212.507 3.209783
213.122 -0.136311
213.738 2.985426
214.353 -1.544068
214.969 2.896526
215.585 2.846955
216.201 -0.058331
216.817 2.833784
217.433 2.536558
218.049 0.000000
218.666 0.977159
219.282 2.960946
219.899 0.841130
220.516 0.000000
221.133 -0.233130
221.75 3.183555
222.368 0.834103
222.985 -2.900367
223.603 -0.149298
224.22 2.935507
224.838 2.890421
225.456 2.653213
226.074 -0.267910
226.692 -2.824776
227.311 -0.002343
227.929 0.681144
228.548 3.108227
229.167 -2.546543
229.786 0.300329
230.405 1.963788
231.024 2.890421
231.643 2.718502
232.262 3.280123
232.882 0.450664
233.501 0.592373
234.121 0.000000
234.741 3.097604
235.361 3.122544
235.982 -0.204120
236.602 0.000000
237.222 -0.208508
237.843 -0.575253
238.464 3.063333
239.084 -3.011570
239.706 -0.167452
240.327 2.190332
240.948 2.990339
241.569 -0.178447
242.191 0.306459
242.812 -0.474495
243.434 2.913284
244.056 -2.864511
244.678 3.082426
245.3 2.357935
245.923 0.244369
246.545 2.396199
247.167 3.215373
247.79 1.845098
248.413 -0.288330
249.036 3.030600
249.659 0.138338
250.282 3.189490
250.906 0.020614
251.529 -0.741908
252.153 0.743046
252.776 -0.061452
253.4 2.935003
254.024 2.872739
254.648 2.769377
255.273 3.097604
255.897 -0.236977
256.521 2.827369
257.146 2.902003
257.771 0.000000
258.396 0.138796
259.021 3.026125
259.646 3.198382
260.271 0.129815
260.897 0.573425
261.522 3.142702
262.148 1.445827
262.774 0.555229
263.399 3.206826
264.026 2.396199
264.652 3.097604
265.278 0.292238
265.904 0.598669
266.531 2.294466
267.158 0.675280
267.784 2.550228
268.411 3.021603
269.038 2.123852
269.666 2.965672
270.293 -2.491362
270.921 0.442849
271.548 2.691965
272.176 3.277609
272.804 3.021603
273.432 3.165244
274.06 2.945961
274.688 3.183555
275.316 0.203509
275.945 2.965672
276.573 2.840106
277.202 0.387359
277.831 3.118595
278.46 -0.157213
279.089 2.691965
279.718 3.272770
280.348 2.632457
280.977 -0.148205
281.607 0.000000
282.237 0.275087
282.866 2.791691
283.497 -0.023630
284.127 0.845098
284.757 3.025715
285.387 0.000000
286.018 1.215064
286.648 0.791297
287.279 0.584504
287.91 2.621176
288.541 0.501084
289.172 0.000000
289.803 -1.748188
290.435 0.000000
291.067 1.397940
291.698 2.768638
292.33 3.042969
292.962 0.000000
293.594 2.994757
294.226 0.000000
294.858 3.074816
295.491 -2.733999
296.123 -0.100577
296.756 3.220892
297.389 2.935003
298.022 0.886768
298.654 0.004059
299.288 0.000000
299.921 0.172311
300.554 2.769377
301.188 3.104487
301.822 3.364739
302.455 -0.009606
303.089 2.357935
303.723 2.924279
304.357 2.432969
304.992 0.358106
305.626 -0.530310
306.261 -0.056057
306.895 2.575188
307.53 3.165244
308.165 -2.459392
308.8 3.034227
309.435 2.450249
310.07 1.049864
310.706 3.168203
311.341 0.174886
311.977 3.142702
312.613 3.012837
313.249 3.332034
313.885 3.086360
314.521 3.104828
315.157 0.333882
315.793 2.653213
316.43 1.533948
317.067 3.463445
317.703 0.511483
318.34 3.097604
318.977 1.358411
319.614 3.245019
320.252 1.312186
320.889 2.465383
321.526 1.057407
322.164 1.141354
322.802 3.327767
323.44 0.640859
324.078 0.564672
324.716 3.399154
325.354 1.697275
325.992 0.360467
326.631 1.061667
327.269 1.337792
327.908 0.608028
328.547 3.636688
329.186 0.543950
329.825 2.339025
330.464 1.910110
331.104 3.526469
331.743 0.772974
332.383 1.094365
333.022 3.595606
333.662 3.609381
334.302 3.740521
334.942 3.626956
335.582 3.640879
336.223 1.146409
336.863 1.058005
337.504 1.125555
338.144 1.047038
338.785 3.703205
339.426 1.220783
340.067 0.656097
340.708 1.173834
341.349 3.731266
341.991 0.942425
342.632 0.965949
343.274 1.058624
343.916 3.793022
344.558 0.866468
345.2 1.068071
345.842 3.870521
346.484 3.898615
347.126 1.386184
347.769 3.886321
348.411 2.132683
349.054 3.926085
349.697 3.921634
350.34 3.937869
350.983 3.917820
351.626 1.188505
352.27 3.959471
352.913 3.896857
353.557 0.974352
354.2 3.930898
354.844 2.450205
355.488 3.989138
356.132 4.015527
356.776 3.974327
357.421 1.392706
358.065 1.195360
358.709 4.012879
359.354 2.101711
359.999 1.695013
360.644 3.982497
361.289 1.615631
361.934 4.009323
362.579 4.062845
363.224 1.130839
363.87 1.948983
364.515 4.049102
365.161 1.696143
365.807 4.020403
366.453 4.118562
367.099 1.023392
367.745 4.114678
368.392 4.101850
369.038 0.913636
369.685 4.136974
370.331 1.479799
370.978 1.326234
371.625 4.160709
372.272 4.101128
372.919 1.460362
373.566 4.154637
374.214 4.167937
374.861 4.167317
375.509 1.514140
376.156 2.680387
376.804 1.396500
377.452 1.347091
378.1 4.253265
378.748 4.301356
379.397 2.326963
380.045 4.285760
380.694 1.528793
381.342 4.319959
381.991 1.553810
382.64 4.341553
383.289 4.351042
383.938 2.129956
384.587 4.348791
385.237 4.356332
385.886 2.211526
386.536 2.380746
387.186 2.475633
387.836 4.396356
388.485 1.469273
389.135 1.994533
389.786 1.573148
390.436 1.310802
391.086 1.248040
391.737 1.067051
392.387 1.256598
393.038 1.623814
393.689 1.306330
394.34 1.057969
394.991 1.066578
395.642 0.939052
396.294 0.974030
396.945 0.812575
397.597 0.832629
398.248 0.876260
398.9 0.768714
399.552 0.759921
400.204 0.775584
400.856 0.657182
401.509 0.687395
402.161 0.674100
402.813 0.627778
403.466 0.614185
404.119 0.531860
404.772 0.647438
405.425 0.521717
406.078 0.571117
406.731 0.508363
407.384 0.509013
408.038 0.579511
408.691 0.505880
409.345 0.445697
409.998 0.476350
410.652 0.439408
411.306 0.440870
411.961 0.456090
412.615 0.433714
413.269 0.441191
413.923 0.394858
414.578 0.439734
415.233 0.422982
415.887 0.386904
416.542 0.378419
417.197 0.361877
417.852 0.393385
418.508 0.361347
419.163 0.401595
419.818 0.428570
420.474 0.391447
421.13 0.377524
421.786 0.367196
422.442 0.365119
423.098 0.351359
423.754 0.356308
424.41 0.347100
425.066 0.369436
425.723 0.358249
426.379 0.349251
427.036 0.384615
427.693 0.359398
428.35 0.356137
429.007 0.296848
429.664 0.308556
430.321 0.351035
430.979 0.377270
431.636 0.337273
432.294 0.359759
432.952 0.337267
433.609 0.331929
434.267 0.414484
434.925 0.335454
435.584 0.317974
436.242 0.341962
436.9 0.325596
437.559 0.355426
438.217 0.342996
438.876 0.348864
439.535 0.325517
440.194 0.370860
440.853 0.344949
441.512 0.371688
442.171 0.379803
442.831 0.356849
443.49 0.390923
444.15 0.372588
444.81 0.339248
445.469 0.441445
446.129 0.358049
446.789 0.360776
447.45 0.413199
448.11 0.390694
448.77 0.358986
449.431 0.389413
450.091 0.466976
450.752 0.430849
451.413 0.487106
452.074 0.411636
452.735 0.413753
453.396 0.516175
454.057 0.533122
454.719 0.491042
455.38 0.501202
456.042 0.476225
456.704 0.462740
457.365 0.539916
458.027 0.566763
458.689 0.557858
459.352 0.559348
460.014 0.488505
460.676 0.612795
461.339 0.534733
462.001 0.586871
462.664 0.627918
463.327 0.603778
463.99 0.665824
464.653 0.620222
465.316 0.654361
465.979 0.732542
466.642 0.678024
467.306 0.688478
467.97 0.699059
468.633 0.664698
469.297 0.744913
469.961 0.632858
470.625 0.690063
471.289 0.741285
471.953 0.809003
472.618 0.778349
473.282 0.786913
473.947 0.753987
474.611 0.855620
475.276 0.772684
475.941 0.737420
476.606 0.825541
477.271 0.883351
477.936 0.854417
478.602 0.862647
479.267 0.958807
479.933 1.025636
480.598 0.939231
481.264 1.054531
481.93 0.995491
482.596 1.021498
483.262 0.853526
483.928 1.020203
484.594 1.063685
485.261 1.083349
485.927 1.109189
486.594 1.087869
487.26 1.171626
487.927 1.246502
488.594 1.183575
489.261 1.207530
489.928 1.209882
490.596 1.128463
491.263 1.240880
491.93 1.218786
492.598 1.541346
493.266 1.234780
493.933 1.206591
494.601 1.398975
495.269 1.164490
495.937 1.718190
496.606 1.285958
497.274 1.266662
497.942 1.710581
498.611 1.488451
499.279 1.211339
499.948 1.272788
500.617 1.365023
501.286 1.209284
501.955 1.441104
502.624 1.799450
503.293 1.206865
503.963 1.350744
504.632 1.216040
505.302 1.635142
505.972 1.138763
506.641 1.536396
507.311 1.682305
507.981 1.464995
508.651 1.189990
509.322 1.227529
509.992 1.504645
510.662 1.374264
511.333 1.251510
512.004 1.446152
512.674 1.406849
513.345 1.271730
514.016 1.212389
514.687 1.586301
515.358 1.096033
516.029 1.016825
516.701 1.436562
517.372 1.464532
518.044 1.142721
518.716 1.318419
519.387 1.196434
520.059 1.054213
520.731 1.477328
521.403 1.199665
522.076 1.318637
522.748 1.247450
523.42 1.146523
524.093 1.147181
524.765 1.145722
525.438 1.236535
526.111 1.307479
526.784 1.178973
527.457 1.166754
528.13 1.041043
528.803 1.044506
529.476 0.851198
530.15 0.902875
530.823 1.093992
531.497 1.026820
532.171 1.040230
532.845 0.926262
533.519 1.006628
534.193 0.943629
534.867 0.837204
535.541 0.793842
536.216 0.770986
536.89 0.813525
537.564 0.902979
538.239 0.808529
538.914 0.771049
539.589 0.749486
540.264 0.835619
540.939 0.792895
541.614 0.688526
542.289 0.720686
542.965 0.703656
543.64 0.650745
544.316 0.658386
544.991 0.722353
545.667 0.654134
546.343 0.606970
547.019 0.497468
547.695 0.549152
548.371 0.518539
549.048 0.560208
549.724 0.551259
550.401 0.531217
551.077 0.540690
551.754 0.570542
552.431 0.493150
553.108 0.478731
553.785 0.472620
554.462 0.441491
555.139 0.394147
555.816 0.407415
556.494 0.401511
557.171 0.353504
557.849 0.359555
558.527 0.361586
559.204 0.321870
559.882 0.350106
560.56 0.314983
561.238 0.345650
561.917 0.340022
562.595 0.311599
563.273 0.301317
563.952 0.275113
564.63 0.309886
565.309 0.273163
565.988 0.246191
566.667 0.273207
567.346 0.247558
568.025 0.234920
568.704 0.245155
569.384 0.232594
570.063 0.214128
570.742 0.218093
571.422 0.220542
572.102 0.212231
572.782 0.206277
573.462 0.206364
574.141 0.198387
574.822 0.184404
575.502 0.198318
576.182 0.196491
576.863 0.194804
577.543 0.189633
578.224 0.167545
578.904 0.162053
579.585 0.163683
580.266 0.151192
580.947 0.161085
581.628 0.145878
582.309 0.142900
582.991 0.139544
583.672 0.160586
584.354 0.140817
585.035 0.144054
585.717 0.137495
586.399 0.129392
587.08 0.131059
587.762 0.122226
588.444 0.132380
589.127 0.119881
589.809 0.132097
590.491 0.122086
591.174 0.130250
591.856 0.125660
592.539 0.120735
593.222 0.116451
593.905 0.115431
594.587 0.108734
595.27 0.119545
595.954 0.114193
596.637 0.123481
597.32 0.124863
598.004 0.120366
598.687 0.129998
599.371 0.119000
600.055 0.116059
600.738 0.101869
601.422 0.098420
602.106 0.104066
602.79 0.113526
603.475 0.102261
604.159 0.108526
604.843 0.111183
605.528 0.099463
606.212 0.081507
606.897 0.090455
607.582 0.094212
608.267 0.094055
608.952 0.091794
609.637 0.095248
610.322 0.099082
611.007 0.094874
611.693 0.091183
612.378 0.105558
613.064 0.081790
613.749 0.099727
614.435 0.096087
615.121 0.096531
615.807 0.093884
616.493 0.080854
617.179 0.073884
617.865 0.104009
618.552 0.072697
619.238 0.080759
619.924 0.098182
620.611 0.081616
621.298 0.099341
621.985 0.092181
622.671 0.098511
623.358 0.103481
624.045 0.091896
624.733 0.059386
625.42 0.085070
626.107 0.066634
626.795 0.109044
627.482 0.078743
628.17 0.097692
628.858 0.074649
629.545 0.079287
630.233 0.096125
630.921 0.111778
631.609 0.076473
632.298 0.094165
632.986 0.093244
633.674 0.100093
634.363 0.089596
635.051 0.128714
635.74 0.086610
636.429 0.075472
637.118 0.074073
637.807 0.110716
638.496 0.078743
639.185 0.065754
639.874 0.068364
640.563 0.054522
641.253 0.104164
641.942 0.097497
642.632 0.053106
643.322 0.097104
644.011 0.073140
644.701 0.077790
645.391 0.114265
646.081 0.054721
646.771 0.085225
647.462 0.119369
648.152 0.119591
648.842 0.078840
649.533 0.109814
650.224 0.074146
650.914 0.088402
651.605 0.088589
652.296 0.063702
652.987 0.075474
653.678 0.058578
654.369 0.094213
655.061 0.148920
655.752 0.103672
656.443 0.001458
657.135 0.089876
657.826 0.087878
658.518 0.096724
659.21 0.127378
659.902 0.155629
660.594 0.107824
661.286 0.130038
661.978 0.101207
662.67 0.104627
663.363 0.050662
664.055 0.059808
664.748 0.121738
665.44 0.121697
666.133 0.069009
666.826 0.085357
667.519 0.061658
668.212 0.083442
668.905 0.096699
669.598 0.089363
670.291 0.109402
670.985 0.078818
671.678 0.070451
672.372 0.074549
673.065 0.057298
673.759 0.093248
674.453 0.081227
675.147 0.110866
675.841 0.079385
676.535 0.092836
677.229 0.080457
677.923 0.090537
678.617 0.086072
679.312 0.127061
680.006 0.082389
680.701 0.086455
681.396 0.100866
682.091 0.071736
682.785 0.064889
683.48 0.050929
684.175 0.061789
684.87 0.086714
685.566 0.106300
686.261 0.096901
686.957 0.058952
687.652 0.062957
688.348 0.071652
689.043 0.082760
689.739 0.084733
690.435 0.107864
691.131 0.118844
691.827 0.093149
692.523 0.098384
693.219 0.091226
693.915 0.071884
694.612 0.062444
695.308 0.095408
696.005 0.104412
696.702 0.108324
697.398 0.123399
698.095 0.091985
698.792 0.062864
699.489 0.067139
700.186 0.110716
700.883 0.117270
701.581 0.109576
702.278 0.099586
702.975 0.061560
703.673 0.145804
704.37 0.072580
705.068 0.072912
705.766 0.087118
706.464 0.112568
707.162 0.057046
707.86 0.101345
708.558 0.095677
709.256 0.063318
709.955 0.085577
710.653 0.068740
711.351 0.063503
712.05 0.048401
712.749 0.104950
713.447 0.093964
714.146 0.063794
714.845 0.090289
715.544 0.080011
716.243 0.026702
716.942 0.083078
717.642 0.106807
718.341 0.067573
719.04 0.082424
719.74 0.110799
720.439 0.066029
721.139 0.065691
721.839 0.101960
722.539 0.064755
723.239 0.087360
723.939 0.073750
724.639 0.159817
725.339 0.084052
726.039 0.118135
726.74 0.083452
727.44 0.130767
728.141 0.081085
728.841 0.036534
729.542 0.062348
730.243 0.079633
730.944 0.100922
731.645 0.101508
732.346 0.094073
733.047 0.107998
733.748 0.102919
734.449 0.079471
735.151 0.076487
735.852 0.102839
736.554 0.088426
737.256 0.074150
737.957 0.084150
738.659 0.072240
739.361 0.096269
740.063 0.068778
740.765 0.076074
741.467 0.103479
742.169 0.063718
742.872 0.057264
743.574 0.099960
744.277 0.106082
744.979 0.075130
745.682 0.107297
746.385 0.110628
747.087 0.102174
747.79 0.079538
748.493 0.112367
749.196 0.054747
749.899 0.073743
750.603 0.081073
751.306 0.056831
752.01 0.092100
752.713 0.107983
753.417 0.060071
754.12 0.091653
754.824 0.076403
755.528 0.093025
756.232 0.101110
756.936 0.069724
757.64 0.098947
758.344 0.095843
759.048 0.068208
759.752 0.112459
760.457 0.087789
761.161 0.081822
761.866 0.107778
762.571 0.087336
763.275 0.064869
763.98 0.111816
764.685 0.053916
765.39 0.101739
766.095 0.068252
766.8 0.063996
767.505 0.086370
768.211 0.085097
768.916 0.097510
769.621 0.081312
770.327 0.095307
771.033 0.084772
771.738 0.101590
772.444 0.095146
773.15 0.065379
773.856 0.103789
774.562 0.111196
775.268 0.016833
775.974 0.074510
776.68 0.083546
777.387 0.134030
778.093 0.095475
778.8 0.091154
779.506 0.100807
780.213 0.115194
780.92 0.101572
781.626 0.070910
782.333 0.090558
783.04 0.092660
783.747 0.061399
784.455 0.097740
785.162 0.106853
785.869 0.109606
786.577 0.062793
787.284 0.103777
787.992 0.077920
788.699 0.097007
789.407 0.106104
790.115 0.117992
790.823 0.101138
791.531 0.112218
792.239 0.061516
792.947 0.060154
793.655 0.068779
794.363 0.109246
795.072 0.077862
795.78 0.102989
796.489 0.093222
797.197 0.102722
797.906 0.095389
798.615 0.041026
799.323 0.038843
800.032 0.087675
800.741 0.103713
801.45 0.105287
802.159 0.078151
802.869 0.093829
803.578 0.117266
804.287 0.115382
804.997 0.047462
805.706 0.075309
806.416 0.088331
807.126 0.062313
807.835 0.065882
808.545 0.075308
809.255 0.091667
809.965 0.067001
810.675 0.079488
811.385 0.131487
812.096 0.109556
812.806 0.033620
813.516 0.091583
814.227 0.126952
814.937 0.071071
815.648 0.062126
816.359 0.112883
817.069 0.082386
817.78 0.019856
818.491 0.096690
819.202 0.167314
819.913 0.029836
820.624 0.069976
821.336 0.154504
822.047 0.128080
822.758 0.151616
823.47 0.166029
824.181 0.101969
824.893 0.201627
825.605 0.064393
826.317 0.121198
827.028 0.125231
827.74 0.095140
828.452 0.180768
829.164 0.093304
829.876 0.064923
830.589 0.088843
831.301 0.128292
832.013 0.199341
832.726 0.097401
833.438 0.135909
834.151 0.111841
834.864 0.113442
835.577 0.045053
836.289 0.192828
837.002 0.201877
837.715 -0.002923
838.428 0.004373
839.141 0.137347
839.855 0.066429
840.568 0.087410
841.281 0.070765
841.995 0.083124
842.708 0.040117
843.422 0.161772
844.135 0.188287
844.849 0.163449
845.563 -0.074427
846.277 0.154967
846.991 0.119975
847.705 0.089495
848.419 0.160298
849.133 0.178965
849.847 0.031823
850.562 0.121974
851.276 0.020777
851.991 0.048910
852.705 0.127957
853.42 0.090414
854.135 0.129766
854.85 0.138124
855.564 0.091497
856.279 0.066449
856.994 0.084299
857.709 0.132219
858.424 0.137191
859.14 0.085448
859.855 0.111096
860.57 0.186500
861.286 0.122556
862.001 0.097037
862.717 0.269573
863.433 0.178162
864.148 0.139851
864.864 0.167233
865.58 0.118783
866.296 0.010765
867.012 0.122154
867.728 0.178263
868.444 0.109031
869.161 0.132482
869.877 0.009559
870.593 -0.041239
871.31 0.086296
872.026 0.046294
872.743 0.260176
873.46 0.137980
874.176 0.043673
874.893 0.053302
875.61 0.175658
876.327 0.037361
877.044 0.140375
877.761 0.089986
878.478 0.205546
879.196 0.117973
879.913 0.121996
880.63 0.115506
881.348 0.170522
882.065 0.181754
882.783 0.275236
883.501 0.036037
884.218 -0.063304
884.936 0.088064
885.654 0.187072
886.372 0.123976
887.09 0.210188
887.808 0.128239
888.527 0.200465
889.245 0.142934
889.963 0.099077
890.682 0.192241
891.4 0.106205
892.119 0.035429
892.837 0.152826
893.556 0.111514
894.275 0.171716
894.994 0.070674
895.712 0.145828
896.431 0.370055
897.15 0.298145
897.87 0.043507
898.589 0.194766
899.308 0.088816
900.027 0.191188
900.747 0.089039
901.466 0.006923
902.186 0.161620
902.905 0.116112
903.625 0.174576
904.345 0.318414
905.064 0.080709
905.784 0.358099
906.504 0.137266
907.224 0.261913
907.944 0.162585
908.664 -0.071978
909.385 0.312878
910.105 0.043428
910.825 0.107262
911.546 0.136971
912.266 0.186595
912.987 0.164922
913.707 -0.025594
914.428 0.480897
915.149 0.122741
915.87 0.112896
916.591 0.221090
917.312 0.260436
918.033 0.035035
918.754 0.256600
919.475 0.511652
920.196 0.121166
920.918 0.205051
921.639 0.518080
922.361 0.090993
923.082 0.080489
923.804 0.123613
924.525 0.321928
925.247 -0.075227
925.969 0.028689
926.691 0.164316
927.413 0.488237
928.135 0.436225
928.857 0.160707
929.579 0.337737
930.301 0.221849
931.023 0.068075
931.746 0.166892
932.468 0.168157
933.191 0.245457
933.913 0.464375
934.636 0.220190
935.358 0.113418
936.081 0.444258
936.804 0.533520
937.527 3.301030
938.25 0.618955
938.973 0.293059
939.696 3.206826
940.419 -0.046939
941.142 -0.097757
941.865 0.037574
942.589 0.131293
943.312 0.552622
944.036 3.237041
944.759 3.391641
945.483 3.272770
946.207 -0.145629
946.93 0.022195
947.654 3.168203
948.378 0.136134
949.102 0.602844
949.826 3.104828
950.55 0.180138
951.274 0.107550
951.998 0.130742
952.723 -0.185177
953.447 -0.029836
954.171 -1.129515
954.896 0.333409
955.62 0.032015
956.345 1.043069
957.07 3.067071
957.794 0.551062
958.519 0.554098
959.244 -0.090720
959.969 0.136799
960.694 -0.092492
961.419 -0.006704
962.144 2.673021
962.869 1.573203
963.594 0.231296
964.32 3.145818
965.045 0.149386
965.77 2.935507
966.496 0.068205
967.222 2.833784
967.947 -0.017056
968.673 0.005237
969.399 2.896526
970.125 2.575188
970.85 2.710117
971.576 0.449571
972.302 0.095242
973.028 3.206826
973.755 0.089611
974.481 0.042794
975.207 3.215373
975.933 2.853698
976.66 3.082785
977.386 2.745075
978.113 0.785475
978.839 0.508725
979.566 -0.247989
980.293 3.008600
981.019 2.752816
981.746 1.845098
982.473 0.078290
983.2 2.990339
983.927 0.399059
984.654 -0.285682
985.381 0.966719
986.109 0.000000
986.836 3.142702
987.563 2.700704
988.291 -0.116372
989.018 3.115278
989.746 -0.138599
990.473 0.340011
991.201 2.745075
991.928 -3.291369
992.656 1.082486
993.384 3.021603
994.112 2.806180
994.84 -2.851870
995.568 2.884795
996.296 2.827369
997.024 2.049218
997.752 2.768638
998.481 0.343878
999.209 0.000000
999.937 2.318063
1000.67 0.916722
1001.39 2.745075
1002.12 2.840106
1002.85 0.179285
1003.58 -2.659916
1004.31 -0.264746
1005.04 1.585300
1005.77 2.783904
1006.5 2.812913
1007.22 2.653213
1007.95 0.883677
1008.68 0.200603
1009.41 -2.390935
1010.14 2.432969
1010.87 0.505328
1011.6 1.591065
1012.33 2.907411
1013.06 0.000000
1013.79 0.053997
1014.52 3.161967
1015.25 2.940516
1015.98 -0.461441
1016.71 -0.449155
1017.44 2.562293
1018.17 3.231724
1018.9 0.711973
1019.63 0.216852
1020.36 2.575188
1021.09 3.287130
1021.82 0.000000
1022.55 2.902003
1023.03 0.386402