File: Auto_Polymerization/Data/UV_VIS_Spectra/MRG-061-F5_spectra_while_stopped_with_alu_foil/spectrum_2025-06-20_10-02-56.txt
# Wavelength (nm)	Intensity (a.u.)
197.7802	-0.000334
198.3922	-0.000229
199.0044	-0.000988
199.6168	-0.002191
200.2292	-0.000208
200.8418	-0.000376
201.4546	-0.000672
202.0674	-0.000123
202.6805	0.000806
203.2936	-0.000208
203.9069	0.000362
204.5203	-0.000841
205.1338	0.000405
205.7475	-0.000419
206.3614	0.000278
206.9753	0.000552
207.5894	0.000552
208.2036	-0.000440
208.8180	0.000383
209.4325	0.000426
210.0471	-0.001073
210.6618	-0.000229
211.2767	-0.001073
211.8918	-0.001453
212.5069	0.000299
213.1222	0.000405
213.7376	0.000890
214.3532	0.000531
214.9689	0.000974
215.5847	-0.000102
216.2007	0.000172
216.8168	-0.000841
217.4330	-0.000503
218.0494	-0.001157
218.6659	-0.000545
219.2825	0.000130
219.8992	0.000848
220.5161	-0.000039
221.1332	0.000468
221.7503	0.000658
222.3676	0.001312
222.9850	-0.000587
223.6026	0.000172
224.2203	0.000004
224.8381	0.000426
225.4561	0.000890
226.0742	0.000109
226.6924	-0.000102
227.3107	-0.000271
227.9292	-0.000186
228.5478	0.000510
229.1666	-0.000039
229.7855	-0.001938
230.4045	-0.000883
231.0236	0.000109
231.6429	-0.001221
232.2623	0.000109
232.8818	-0.000862
233.5015	-0.000946
234.1213	0.000088
234.7413	0.000573
235.3613	-0.000714
235.9815	-0.000144
236.6018	-0.000609
237.2223	-0.000334
237.8429	-0.000714
238.4636	-0.000777
239.0845	0.000869
239.7055	-0.000777
240.3266	0.000447
240.9478	0.000299
241.5692	0.000932
242.1907	0.000067
242.8124	-0.000144
243.4341	0.000552
244.0560	0.000172
244.6781	0.001502
245.3002	-0.000777
245.9225	-0.000925
246.5449	-0.001031
247.1675	0.000341
247.7902	0.000658
248.4130	0.001460
249.0359	0.000383
249.6590	0.000109
250.2822	-0.000482
250.9056	0.001354
251.5290	-0.000651
252.1526	0.001059
252.7763	-0.000988
253.4002	-0.000292
254.0242	-0.000609
254.6483	0.000890
255.2725	-0.000798
255.8969	0.001629
256.5214	0.000679
257.1460	0.001101
257.7708	0.000510
258.3957	-0.000144
259.0207	-0.001115
259.6459	-0.000545
260.2711	0.000046
260.8965	-0.000651
261.5221	-0.001178
262.1477	0.000130
262.7735	-0.000018
263.3995	0.000215
264.0255	-0.001263
264.6517	0.001101
265.2780	-0.000123
265.9044	0.000552
266.5310	-0.000482
267.1577	0.000257
267.7845	-0.000651
268.4114	-0.000524
269.0385	-0.000524
269.6657	0.000784
270.2931	0.000215
270.9205	0.001101
271.5481	-0.000714
272.1758	0.001396
272.8037	0.000531
273.4316	0.000130
274.0597	0.000067
274.6880	0.000848
275.3163	-0.000735
275.9448	-0.000482
276.5734	-0.001432
277.2022	-0.001115
277.8310	-0.000672
278.4600	-0.000334
279.0891	0.000426
279.7184	0.000362
280.3477	-0.000144
280.9772	0.000426
281.6069	-0.000798
282.2366	0.000299
282.8665	0.000426
283.4965	-0.000630
284.1266	-0.000123
284.7569	-0.001748
285.3873	-0.001115
286.0178	-0.000208
286.6484	0.000763
287.2792	0.000784
287.9101	-0.000144
288.5411	0.000025
289.1723	0.000447
289.8035	0.000172
290.4349	-0.000925
291.0665	0.000573
291.6981	-0.000039
292.3299	0.000848
292.9618	0.000004
293.5938	-0.000292
294.2260	-0.000946
294.8582	0.000932
295.4906	0.000974
296.1232	0.000594
296.7558	-0.000482
297.3886	-0.000946
298.0215	0.001607
298.6545	-0.000208
299.2877	-0.000609
299.9210	0.001101
300.5544	-0.001115
301.1879	0.000510
301.8215	-0.001643
302.4553	0.000193
303.0892	-0.001305
303.7233	0.000700
304.3574	0.000362
304.9917	-0.000440
305.6261	-0.001199
306.2606	-0.000313
306.8953	-0.001263
307.5301	-0.000651
308.1650	-0.001031
308.8000	-0.001643
309.4351	-0.000524
310.0704	0.001354
310.7058	-0.000334
311.3413	-0.000250
311.9770	0.000215
312.6127	-0.000250
313.2486	-0.000440
313.8846	-0.001010
314.5208	0.001396
315.1570	0.000341
315.7934	-0.001136
316.4299	0.000299
317.0666	-0.000566
317.7033	0.000278
318.3402	-0.000250
318.9772	0.001354
319.6143	0.000320
320.2516	0.000510
320.8890	-0.000440
321.5265	-0.000271
322.1641	-0.000039
322.8018	0.000067
323.4397	-0.001284
324.0777	0.000088
324.7158	0.000531
325.3540	-0.001411
325.9924	-0.001115
326.6308	0.000426
327.2694	0.000004
327.9082	0.001607
328.5470	-0.000250
329.1860	-0.000397
329.8251	0.000046
330.4643	-0.001178
331.1036	0.000637
331.7431	0.001270
332.3826	0.001164
333.0223	-0.000102
333.6622	-0.001178
334.3021	0.000257
334.9422	0.000362
335.5823	0.001143
336.2227	-0.001178
336.8631	0.001291
337.5036	0.000616
338.1443	0.000890
338.7851	-0.000503
339.4260	0.000004
340.0670	0.000995
340.7082	-0.001094
341.3495	-0.001052
341.9909	0.000700
342.6324	-0.000419
343.2740	0.000890
343.9158	-0.000524
344.5577	0.000953
345.1997	-0.000102
345.8418	-0.000313
346.4840	-0.000566
347.1264	0.000067
347.7689	0.000067
348.4115	-0.000777
349.0542	0.000531
349.6971	0.001629
350.3400	0.000320
350.9831	0.001038
351.6263	-0.001052
352.2696	-0.002592
352.9131	-0.000630
353.5566	0.000784
354.2003	0.000172
354.8441	0.000172
355.4881	0.000320
356.1321	0.001122
356.7763	0.000067
357.4206	-0.001052
358.0650	0.000025
358.7095	-0.000841
359.3541	0.000531
359.9989	-0.000165
360.6438	0.000046
361.2888	0.000109
361.9339	-0.000039
362.5791	-0.000777
363.2245	-0.000355
363.8699	0.000531
364.5155	0.000299
365.1612	0.000341
365.8071	-0.000208
366.4530	0.000130
367.0991	-0.001347
367.7453	0.000995
368.3916	-0.000102
369.0380	-0.001199
369.6845	0.000172
370.3312	0.000510
370.9780	-0.000461
371.6249	0.001629
372.2719	-0.000039
372.9190	0.000679
373.5663	0.001059
374.2136	-0.000820
374.8611	-0.001263
375.5087	0.001164
376.1564	-0.000102
376.8043	0.000362
377.4522	-0.000862
378.1003	0.001945
378.7485	-0.000229
379.3968	0.000257
380.0452	0.001312
380.6938	0.000257
381.3424	-0.000292
381.9912	0.001249
382.6401	-0.000925
383.2891	-0.000102
383.9382	0.000806
384.5875	0.000172
385.2368	-0.000883
385.8863	-0.001368
386.5359	0.000341
387.1856	0.000848
387.8355	0.000299
388.4854	0.000658
389.1355	-0.000060
389.7856	0.001629
390.4359	0.000953
391.0863	-0.000229
391.7369	-0.001052
392.3875	0.002388
393.0383	0.001819
393.6891	0.001861
394.3401	0.001017
394.9912	0.002663
395.6425	0.001481
396.2938	0.002768
396.9453	0.002494
397.5968	0.003022
398.2485	0.002262
398.9003	0.003064
399.5522	0.003275
400.2043	0.003233
400.8564	0.003866
401.5087	0.001523
402.1610	0.005195
402.8135	0.004879
403.4661	0.005090
404.1189	0.005997
404.7717	0.006335
405.4246	0.007749
406.0777	0.006082
406.7309	0.006778
407.3842	0.006335
408.0376	0.006736
408.6911	0.007559
409.3448	0.007116
409.9985	0.007707
410.6524	0.008910
411.3064	0.008234
411.9605	0.007960
412.6147	0.010408
413.2690	0.009796
413.9234	0.009965
414.5780	0.010345
415.2326	0.008994
415.8874	0.009564
416.5423	0.013215
417.1973	0.010007
417.8524	0.013025
418.5077	0.011421
419.1630	0.012688
419.8185	0.012920
420.4741	0.013616
421.1298	0.013468
421.7856	0.016888
422.4415	0.014355
423.0975	0.016022
423.7536	0.015368
424.4099	0.013616
425.0663	0.016423
425.7228	0.014946
426.3793	0.014904
427.0361	0.015495
427.6929	0.015727
428.3498	0.014650
429.0068	0.015558
429.6640	0.018491
430.3213	0.018069
430.9787	0.019125
431.6362	0.016402
432.2938	0.015685
432.9515	0.014883
433.6093	0.017289
434.2673	0.016423
434.9253	0.018217
435.5835	0.017922
436.2418	0.017879
436.9001	0.017689
437.5586	0.017394
438.2173	0.017922
438.8760	0.016951
439.5348	0.017689
440.1938	0.015853
440.8528	0.017014
441.5120	0.021172
442.1713	0.021763
442.8307	0.020243
443.4902	0.020475
444.1498	0.022459
444.8095	0.018660
445.4694	0.020391
446.1293	0.018006
446.7894	0.018280
447.4496	0.019694
448.1098	0.018302
448.7702	0.017289
449.4307	0.018259
450.0914	0.019737
450.7521	0.017858
451.4129	0.016888
452.0739	0.016128
452.7349	0.016529
453.3961	0.014144
454.0574	0.013004
454.7188	0.013046
455.3803	0.015326
456.0419	0.012920
456.7036	0.014249
457.3654	0.014123
458.0274	0.014545
458.6894	0.014460
459.3516	0.014883
460.0138	0.013785
460.6762	0.011653
461.3387	0.013468
462.0013	0.011717
462.6640	0.009860
463.3268	0.011843
463.9897	0.012287
464.6528	0.012561
465.3159	0.011548
465.9792	0.011822
466.6425	0.010408
467.3060	0.010049
467.9696	0.011421
468.6333	0.009459
469.2970	0.007369
469.9610	0.006166
470.6250	0.005786
471.2891	0.006103
471.9533	0.006884
472.6177	0.004900
473.2821	0.007918
473.9467	0.007010
474.6113	0.006947
475.2761	0.007327
475.9410	0.005976
476.6060	0.005596
477.2711	0.005027
477.9363	0.006419
478.6016	0.004562
479.2670	0.007200
479.9325	0.005216
480.5982	0.005639
481.2639	0.004604
481.9298	0.005090
482.5957	0.004710
483.2618	0.003655
483.9280	0.002726
484.5943	0.004626
485.2606	0.006525
485.9271	0.015896
486.5937	0.010092
487.2605	0.006905
487.9273	0.004182
488.5942	0.003908
489.2612	0.003401
489.9284	0.003022
490.5956	0.002114
491.2630	0.004119
491.9304	0.003296
492.5980	0.003148
493.2657	0.003570
493.9334	0.000658
494.6013	0.001755
495.2693	0.002409
495.9374	0.002621
496.6056	0.002663
497.2739	0.002072
497.9423	0.002135
498.6109	0.002367
499.2795	0.002367
499.9482	0.002810
500.6171	0.001629
501.2860	0.002916
501.9551	0.002051
502.6242	0.002114
503.2935	0.001291
503.9628	0.003254
504.6323	0.002473
505.3019	0.002198
505.9716	0.002346
506.6414	0.002958
507.3113	0.002093
507.9813	0.002304
508.6514	0.000911
509.3216	0.002135
509.9919	0.002663
510.6623	0.001819
511.3329	0.002114
512.0035	0.002494
512.6742	0.002431
513.3451	0.003254
514.0160	0.003296
514.6871	0.001080
515.3582	0.003169
516.0295	0.003000
516.7008	0.001903
517.3723	0.002198
518.0439	0.001797
518.7155	0.002409
519.3873	0.002663
520.0592	0.000911
520.7312	0.001185
521.4033	0.003127
522.0755	0.001375
522.7478	0.003022
523.4202	0.001882
524.0927	0.002832
524.7653	0.003908
525.4380	0.002895
526.1108	0.001987
526.7837	0.003950
527.4568	0.003211
528.1299	0.003359
528.8031	0.003908
529.4765	0.004203
530.1499	0.002853
530.8234	0.004689
531.4971	0.004837
532.1708	0.003423
532.8447	0.003190
533.5186	0.005280
534.1927	0.005090
534.8668	0.005744
535.5411	0.005850
536.2155	0.004900
536.8899	0.004647
537.5645	0.006588
538.2392	0.006546
538.9139	0.007031
539.5888	0.006588
540.2638	0.008023
540.9389	0.007981
541.6140	0.008762
542.2893	0.008551
542.9647	0.009627
543.6402	0.010915
544.3158	0.010493
544.9915	0.011084
545.6673	0.010851
546.3432	0.010936
547.0192	0.011907
547.6953	0.014418
548.3715	0.014777
549.0478	0.013912
549.7242	0.015769
550.4007	0.014967
551.0773	0.013300
551.7540	0.015537
552.4308	0.018407
553.1077	0.018196
553.7847	0.018534
554.4618	0.018491
555.1390	0.018238
555.8163	0.019694
556.4937	0.020391
557.1712	0.018365
557.8488	0.021636
558.5266	0.020032
559.2044	0.019125
559.8823	0.021552
560.5603	0.026195
561.2384	0.028136
561.9166	0.027292
562.5949	0.024717
563.2733	0.025182
563.9519	0.027925
564.6305	0.029192
565.3092	0.030669
565.9880	0.030986
566.6669	0.034468
567.3459	0.040631
568.0250	0.044957
568.7043	0.050972
569.3836	0.062664
570.0630	0.080941
570.7425	0.081342
571.4221	0.100083
572.1018	0.106647
572.7816	0.095208
573.4615	0.106267
574.1415	0.125325
574.8216	0.134421
575.5018	0.139908
576.1821	0.121969
576.8626	0.140647
577.5431	0.154281
578.2237	0.190666
578.9044	0.156497
579.5851	0.161541
580.2660	0.164221
580.9470	0.159557
581.6281	0.258772
582.3093	0.241719
582.9906	0.190687
583.6720	0.152951
584.3535	0.152825
585.0351	0.177264
585.7167	0.187817
586.3985	0.158882
587.0804	0.167155
587.7624	0.181380
588.4445	0.161984
589.1266	0.140774
589.8089	0.127309
590.4913	0.117938
591.1737	0.105951
591.8563	0.100294
592.5389	0.119141
593.2217	0.163251
593.9046	0.154049
594.5875	0.133345
595.2705	0.152170
595.9537	0.137228
596.6369	0.112240
597.3203	0.118128
598.0037	0.112345
598.6872	0.123763
599.3709	0.147781
600.0546	0.142420
600.7384	0.142357
601.4223	0.146451
602.1064	0.136447
602.7905	0.136321
603.4747	0.151326
604.1590	0.137819
604.8434	0.124122
605.5279	0.130601
606.2125	0.137798
606.8972	0.123510
607.5819	0.129820
608.2668	0.120998
608.9518	0.113907
609.6369	0.105233
610.3220	0.120239
611.0073	0.112029
611.6927	0.110741
612.3781	0.104811
613.0637	0.102384
613.7493	0.100484
614.4351	0.102278
615.1209	0.099514
615.8068	0.106077
616.4929	0.090945
617.1790	0.087653
617.8652	0.090628
618.5515	0.083368
619.2379	0.070410
619.9244	0.078535
620.6110	0.077480
621.2977	0.061883
621.9845	0.065366
622.6714	0.067919
623.3584	0.074926
624.0454	0.070663
624.7326	0.071697
625.4199	0.069080
626.1072	0.062411
626.7947	0.055826
627.4822	0.055299
628.1698	0.052808
628.8576	0.048524
629.5454	0.051183
630.2333	0.048144
630.9213	0.047152
631.6094	0.041686
632.2976	0.040166
632.9859	0.037423
633.6743	0.036557
634.3628	0.034278
635.0514	0.032357
635.7400	0.031682
636.4288	0.035565
637.1177	0.036410
637.8066	0.034489
638.4957	0.034510
639.1848	0.032737
639.8740	0.031248
640.5633	0.029554
641.2528	0.028435
641.9423	0.026729
642.6319	0.024018
643.3216	0.024549
644.0113	0.024925
644.7012	0.021025
645.3912	0.022529
646.0812	0.021172
646.7714	0.020222
647.4616	0.019576
648.1520	0.025492
648.8424	0.025476
649.5329	0.027220
650.2236	0.026573
650.9143	0.022140
651.6051	0.024126
652.2960	0.026973
652.9870	0.022695
653.6780	0.028087
654.3692	0.027677
655.0605	0.047589
655.7518	0.795121
656.4433	1.006725
657.1348	0.706823
657.8264	0.429373
658.5181	0.319338
659.2099	0.234566
659.9018	0.057330
660.5938	0.023359
661.2859	0.020774
661.9781	0.018525
662.6704	0.020085
663.3627	0.018201
664.0552	0.017684
664.7477	0.019522
665.4403	0.019644
666.1330	0.021418
666.8259	0.017539
667.5188	0.017778
668.2117	0.017170
668.9048	0.016149
669.5980	0.015621
670.2913	0.018133
670.9846	0.017563
671.6781	0.024190
672.3716	0.030015
673.0652	0.027546
673.7589	0.023958
674.4527	0.022902
675.1466	0.019969
675.8406	0.020919
676.5347	0.020053
677.2288	0.018534
677.9231	0.023261
678.6174	0.024717
679.3119	0.027735
680.0064	0.027820
680.7010	0.028685
681.3957	0.030289
682.0905	0.026490
682.7854	0.024760
683.4803	0.024886
684.1754	0.027419
684.8705	0.028580
685.5658	0.036600
686.2611	0.034595
686.9565	0.033708
687.6520	0.036262
688.3476	0.032653
689.0433	0.029508
689.7390	0.030753
690.4349	0.027356
691.1308	0.029044
691.8269	0.029361
692.5230	0.030711
693.2192	0.031154
693.9155	0.030015
694.6119	0.025625
695.3083	0.028559
696.0049	0.027102
696.7016	0.028242
697.3983	0.034299
698.0951	0.031471
698.7920	0.030521
699.4890	0.027672
700.1861	0.026385
700.8833	0.024633
701.5806	0.023747
702.2779	0.023789
702.9753	0.024675
703.6729	0.024380
704.3705	0.024485
705.0682	0.019652
705.7660	0.018724
706.4638	0.024021
707.1618	0.030859
707.8599	0.029888
708.5580	0.031703
709.2562	0.028896
709.9545	0.026385
710.6529	0.029909
711.3514	0.025097
712.0500	0.023240
712.7486	0.023514
713.4474	0.024802
714.1462	0.028917
714.8451	0.027292
715.5441	0.028812
716.2432	0.023599
716.9424	0.022839
717.6416	0.022734
718.3410	0.026343
719.0404	0.023135
719.7399	0.022734
720.4395	0.021425
721.1392	0.024907
721.8390	0.024528
722.5388	0.024760
723.2388	0.023789
723.9388	0.022670
724.6389	0.023303
725.3391	0.026701
726.0394	0.028622
726.7398	0.026828
727.4403	0.024992
728.1408	0.028073
728.8414	0.028115
729.5421	0.029150
730.2429	0.030521
730.9438	0.036072
731.6448	0.035439
732.3458	0.032294
733.0470	0.034848
733.7482	0.036114
734.4495	0.039850
735.1509	0.036811
735.8524	0.041222
736.5539	0.040652
737.2556	0.038647
737.9573	0.034763
738.6591	0.033793
739.3610	0.038372
740.0630	0.034785
740.7651	0.031028
741.4672	0.028411
742.1695	0.028284
742.8718	0.029825
743.5742	0.025583
744.2767	0.022755
744.9792	0.024992
745.6819	0.022079
746.3846	0.023514
747.0874	0.024443
747.7903	0.024253
748.4933	0.023641
749.1964	0.025604
749.8995	0.029297
750.6028	0.035966
751.3061	0.029677
752.0095	0.035080
752.7130	0.029909
753.4166	0.030500
754.1202	0.035312
754.8239	0.031387
755.5278	0.032906
756.2317	0.038605
756.9356	0.040968
757.6397	0.048503
758.3438	0.046202
759.0481	0.044535
759.7524	0.049748
760.4568	0.052745
761.1613	0.049917
761.8658	0.042826
762.5705	0.039259
763.2752	0.042108
763.9800	0.040061
764.6849	0.044662
765.3898	0.047827
766.0949	0.042340
766.8000	0.034785
767.5052	0.031450
768.2105	0.036811
768.9159	0.039955
769.6214	0.037402
770.3269	0.037001
771.0325	0.038056
771.7382	0.033392
772.4440	0.034341
773.1499	0.032526
773.8558	0.031133
774.5618	0.027503
775.2679	0.026089
775.9741	0.021910
776.6804	0.019610
777.3868	0.020771
778.0932	0.021256
778.7997	0.023177
779.5063	0.024992
780.2130	0.022354
780.9197	0.023852
781.6265	0.029424
782.3335	0.028474
783.0405	0.027799
783.7475	0.026364
784.4547	0.023831
785.1619	0.023177
785.8692	0.024338
786.5766	0.023113
787.2841	0.023029
787.9917	0.025161
788.6993	0.025625
789.4070	0.024464
790.1148	0.019251
790.8227	0.019357
791.5306	0.019610
792.2387	0.017901
792.9468	0.017753
793.6550	0.018639
794.3632	0.025055
795.0716	0.028516
795.7800	0.024675
796.4885	0.020433
797.1971	0.016930
797.9058	0.017394
798.6145	0.017183
799.3233	0.018470
800.0322	0.018112
800.7412	0.015495
801.4503	0.014292
802.1594	0.014334
802.8686	0.014482
803.5779	0.015136
804.2873	0.013848
804.9968	0.014334
805.7063	0.014904
806.4159	0.019758
807.1256	0.018112
807.8354	0.019272
808.5452	0.017922
809.2551	0.017689
809.9651	0.017204
810.6752	0.018069
811.3853	0.017225
812.0956	0.013110
812.8059	0.010324
813.5163	0.011316
814.2267	0.015663
814.9373	0.013785
815.6479	0.011569
816.3586	0.010324
817.0694	0.011041
817.7802	0.012835
818.4912	0.009838
819.2022	0.010071
819.9133	0.010873
820.6244	0.012477
821.3357	0.012624
822.0470	0.012413
822.7584	0.010577
823.4698	0.008340
824.1814	0.009226
824.8930	0.009712
825.6047	0.011316
826.3165	0.008530
827.0283	0.010493
827.7402	0.010746
828.4522	0.009036
829.1643	0.011041
829.8765	0.009163
830.5887	0.007053
831.3010	0.007580
832.0134	0.007264
832.7259	0.006272
833.4384	0.007285
834.1510	0.008192
834.8637	0.006588
835.5765	0.007665
836.2893	0.006040
837.0022	0.005048
837.7152	0.005533
838.4283	0.006040
839.1414	0.006398
839.8546	0.005301
840.5679	0.004984
841.2813	0.005005
841.9947	0.004604
842.7082	0.004647
843.4218	0.003169
844.1355	0.003676
844.8492	0.003043
845.5631	0.004837
846.2770	0.002958
846.9909	0.003190
847.7050	0.003591
848.4191	0.003591
849.1333	0.004668
849.8475	0.002621
850.5619	0.004203
851.2763	0.001713
851.9908	0.003866
852.7053	0.008446
853.4200	0.010788
854.1347	0.011421
854.8495	0.011295
855.5643	0.010408
856.2792	0.009163
856.9942	0.010113
857.7093	0.008361
858.4245	0.008150
859.1397	0.006926
859.8550	0.007411
860.5704	0.005069
861.2858	0.005449
862.0013	0.006968
862.7169	0.005195
863.4326	0.005723
864.1483	0.005807
864.8642	0.004626
865.5800	0.003634
866.2960	0.004056
867.0120	0.003760
867.7281	0.004013
868.4443	0.004815
869.1606	0.003929
869.8769	0.002599
870.5933	0.003401
871.3097	0.003486
872.0263	0.002979
872.7429	0.003338
873.4596	0.003022
874.1763	0.003971
874.8932	0.003380
875.6101	0.003908
876.3270	0.002958
877.0441	0.005090
877.7612	0.004182
878.4784	0.005174
879.1957	0.005512
879.9130	0.006884
880.6304	0.007200
881.3479	0.006947
882.0654	0.005871
882.7831	0.004267
883.5007	0.003655
884.2185	0.003127
884.9363	0.004668
885.6542	0.003950
886.3722	0.004984
887.0903	0.006314
887.8084	0.003486
888.5266	0.002557
889.2448	0.002958
889.9632	0.003570
890.6816	0.003866
891.4001	0.002979
892.1186	0.004562
892.8372	0.003697
893.5559	0.004393
894.2747	0.003043
894.9935	0.002346
895.7124	0.003233
896.4314	0.006187
897.1504	0.004035
897.8695	0.002895
898.5887	0.003127
899.3079	0.004309
900.0272	0.003549
900.7466	0.003380
901.4661	0.003000
902.1856	0.003190
902.9052	0.002937
903.6249	0.001185
904.3446	0.003022
905.0644	0.002367
905.7843	0.003992
906.5043	0.003591
907.2243	0.003085
907.9444	0.003127
908.6645	0.002684
909.3847	0.001418
910.1050	0.001122
910.8254	0.002789
911.5458	0.001819
912.2663	0.004837
912.9869	0.002346
913.7075	0.002093
914.4283	0.002599
915.1490	0.003950
915.8699	0.002726
916.5908	0.004056
917.3118	0.003359
918.0328	0.003781
918.7539	0.002452
919.4751	0.002832
920.1964	0.002431
920.9177	0.001945
921.6391	0.002135
922.3606	0.002979
923.0821	0.003190
923.8037	0.003718
924.5254	0.002452
925.2471	0.002473
925.9689	0.001755
926.6908	0.002114
927.4127	0.001291
928.1347	0.001966
928.8568	0.002008
929.5789	0.001164
930.3011	0.000869
931.0234	0.001650
931.7457	0.000341
932.4681	0.002452
933.1906	0.000911
933.9131	0.002367
934.6358	0.000489
935.3584	0.000405
936.0812	0.000784
936.8040	0.001080
937.5269	0.000088
938.2498	0.000573
938.9728	0.002473
939.6959	0.000573
940.4190	0.000806
941.1422	-0.000355
941.8655	0.001249
942.5889	0.000130
943.3123	0.001776
944.0357	0.000236
944.7593	0.001650
945.4829	0.001586
946.2066	0.000531
946.9303	0.000468
947.6541	0.000784
948.3780	-0.000946
949.1019	-0.000081
949.8259	-0.000524
950.5500	0.000637
951.2741	0.000763
951.9983	-0.000144
952.7226	0.000742
953.4469	0.001523
954.1713	0.000848
954.8958	0.001671
955.6203	0.000616
956.3449	-0.000777
957.0696	0.000215
957.7943	0.001249
958.5191	0.000257
959.2439	0.002409
959.9688	0.000236
960.6938	-0.000060
961.4189	-0.000672
962.1440	-0.001178
962.8692	0.000172
963.5944	0.000193
964.3197	-0.000883
965.0451	0.000616
965.7705	0.001650
966.4960	0.001143
967.2216	-0.000904
967.9472	-0.000904
968.6729	0.001207
969.3987	0.000721
970.1245	0.000510
970.8504	0.000341
971.5763	-0.000250
972.3023	-0.000060
973.0284	0.000025
973.7545	0.001207
974.4807	0.001903
975.2070	-0.000482
975.9333	0.000299
976.6597	0.001038
977.3862	0.000721
978.1127	0.000995
978.8393	-0.000440
979.5659	-0.000693
980.2926	-0.000967
981.0194	-0.000018
981.7462	0.000193
982.4731	0.001207
983.2001	-0.000798
983.9271	-0.000186
984.6542	-0.001263
985.3814	0.000215
986.1086	-0.000144
986.8358	-0.000376
987.5632	-0.002086
988.2906	0.001143
989.0180	-0.000018
989.7456	0.000193
990.4732	-0.001495
991.2008	0.000700
991.9285	-0.000609
992.6563	-0.000925
993.3841	0.001143
994.1120	-0.000566
994.8400	-0.000566
995.5680	0.001270
996.2961	-0.000250
997.0242	-0.000397
997.7524	-0.000967
998.4807	-0.000397
999.2090	0.000405
999.9374	0.000594
1000.67	-0.000039
1001.39	-0.000503
1002.12	-0.001073
1002.85	-0.000313
1003.58	0.000573
1004.31	0.000447
1005.04	-0.000566
1005.77	0.000320
1006.5	0.000489
1007.22	-0.000693
1007.95	0.001164
1008.68	-0.001221
1009.41	0.000489
1010.14	0.000362
1010.87	0.000552
1011.6	-0.000756
1012.33	-0.000123
1013.06	-0.000862
1013.79	0.000531
1014.52	0.000320
1015.25	-0.000440
1015.98	-0.002149
1016.71	0.000130
1017.44	0.000215
1018.17	0.000468
1018.9	-0.000292
1019.63	0.000995
1020.36	-0.000292
1021.09	-0.000039
1021.82	-0.000144
1022.55	0.000046
1023.03	-0.000735