File: Auto_Polymerization/Data/UV_VIS_Spectra/MRG-061-F5_spectra_while_stopped_with_alu_foil/spectrum_2025-06-20_09-06-40.txt
# Wavelength (nm)	Intensity (a.u.)
197.7802	0.000809
198.3922	0.000408
199.0044	-0.000394
199.6168	-0.000035
200.2292	0.000745
200.8418	0.001210
201.4546	0.000999
202.0674	0.000155
202.6805	-0.000120
203.2936	-0.000141
203.9069	-0.000098
204.5203	-0.000204
205.1338	-0.000331
205.7475	-0.000204
206.3614	-0.000141
206.9753	0.000239
207.5894	-0.000056
208.2036	0.001167
208.8180	0.000809
209.4325	-0.001449
210.0471	0.000113
210.6618	-0.000478
211.2767	0.000134
211.8918	0.000429
212.5069	-0.001259
213.1222	-0.000963
213.7376	-0.000098
214.3532	0.000471
214.9689	-0.001027
215.5847	0.000766
216.2007	-0.000056
216.8168	0.000809
217.4330	0.001231
218.0494	-0.000120
218.6659	0.000197
219.2825	-0.000183
219.8992	0.000450
220.5161	0.000197
221.1332	0.000492
221.7503	-0.001006
222.3676	0.000619
222.9850	0.000281
223.6026	-0.001132
224.2203	0.000176
224.8381	-0.000056
225.4561	-0.000541
226.0742	-0.001470
226.6924	0.000197
227.3107	-0.001470
227.9292	-0.000204
228.5478	0.000577
229.1666	0.000091
229.7855	0.000218
230.4045	-0.001132
231.0236	0.002011
231.6429	0.000070
232.2623	0.000830
232.8818	0.000809
233.5015	0.000366
234.1213	-0.000098
234.7413	0.000872
235.3613	0.001146
235.9815	-0.000120
236.6018	0.000176
237.2223	0.001927
237.8429	-0.001111
238.4636	0.000703
239.0845	-0.001702
239.7055	0.001484
240.3266	0.000113
240.9478	0.000429
241.5692	-0.000774
242.1907	0.000999
242.8124	0.000028
243.4341	0.000239
244.0560	-0.000014
244.6781	0.000661
245.3002	-0.001048
245.9225	-0.000120
246.5449	-0.000394
247.1675	-0.000056
247.7902	-0.000478
248.4130	0.000387
249.0359	-0.000626
249.6590	0.000408
250.2822	-0.000373
250.9056	0.000513
251.5290	-0.000879
252.1526	0.000682
252.7763	-0.000352
253.4002	0.000893
254.0242	0.000176
254.6483	-0.000120
255.2725	-0.000204
255.8969	-0.000689
256.5214	0.001758
257.1460	0.001463
257.7708	-0.000816
258.3957	0.000788
259.0207	0.001020
259.6459	-0.001069
260.2711	-0.001174
260.8965	0.001104
261.5221	-0.000246
262.1477	-0.000225
262.7735	0.001231
263.3995	0.000155
264.0255	-0.000225
264.6517	0.000345
265.2780	0.000323
265.9044	0.001399
266.5310	-0.000921
267.1577	0.000830
267.7845	-0.000288
268.4114	0.000176
269.0385	-0.000626
269.6657	-0.000056
270.2931	0.000513
270.9205	0.000619
271.5481	0.000556
272.1758	0.000745
272.8037	0.000070
273.4316	-0.000352
274.0597	-0.000689
274.6880	0.000239
275.3163	0.000366
275.9448	0.000366
276.5734	0.001526
277.2022	0.000197
277.8310	-0.000605
278.4600	-0.000098
279.0891	0.001547
279.7184	0.000577
280.3477	0.000619
280.9772	-0.000331
281.6069	-0.000605
282.2366	0.000028
282.8665	-0.001301
283.4965	0.000113
284.1266	0.001463
284.7569	0.000809
285.3873	0.000914
286.0178	0.000323
286.6484	0.000197
287.2792	0.000028
287.9101	-0.000225
288.5411	0.000999
289.1723	0.000513
289.8035	-0.000225
290.4349	0.000113
291.0665	-0.000584
291.6981	0.000598
292.3299	0.000640
292.9618	-0.000183
293.5938	-0.000394
294.2260	-0.000225
294.8582	-0.000647
295.4906	-0.001069
296.1232	0.000345
296.7558	0.001020
297.3886	0.000661
298.0215	0.000134
298.6545	-0.000541
299.2877	-0.000204
299.9210	0.001020
300.5544	-0.001217
301.1879	0.001104
301.8215	0.000513
302.4553	0.000323
303.0892	-0.000288
303.7233	-0.000309
304.3574	0.001336
304.9917	0.001336
305.6261	-0.000689
306.2606	0.000218
306.8953	0.001125
307.5301	0.000492
308.1650	0.001505
308.8000	0.000471
309.4351	0.000091
310.0704	0.000788
310.7058	-0.000478
311.3413	0.000176
311.9770	0.000956
312.6127	0.001948
313.2486	-0.000921
313.8846	0.000366
314.5208	-0.000162
315.1570	0.000577
315.7934	0.000302
316.4299	-0.000816
317.0666	-0.000752
317.7033	0.000429
318.3402	0.001041
318.9772	-0.000225
319.6143	0.000387
320.2516	-0.000541
320.8890	0.000134
321.5265	-0.000689
322.1641	0.000260
322.8018	0.000471
323.4397	-0.000225
324.0777	0.000408
324.7158	0.001589
325.3540	0.000745
325.9924	0.001420
326.6308	0.000113
327.2694	-0.000394
327.9082	0.000893
328.5470	-0.000563
329.1860	0.000049
329.8251	0.000197
330.4643	0.000176
331.1036	-0.000014
331.7431	0.000450
332.3826	-0.000710
333.0223	0.000302
333.6622	0.000218
334.3021	-0.001027
334.9422	-0.000563
335.5823	0.000450
336.2227	0.000471
336.8631	-0.000541
337.5036	-0.000626
338.1443	-0.000309
338.7851	-0.001280
339.4260	-0.000098
340.0670	-0.001259
340.7082	0.000724
341.3495	0.001104
341.9909	0.000218
342.6324	0.001378
343.2740	0.000577
343.9158	-0.002208
344.5577	-0.000183
345.1997	-0.000120
345.8418	-0.000309
346.4840	0.000049
347.1264	-0.000267
347.7689	-0.000478
348.4115	0.000028
349.0542	-0.000436
349.6971	0.001378
350.3400	0.000155
350.9831	0.000745
351.6263	-0.000541
352.2696	0.001948
352.9131	0.000703
353.5566	0.001252
354.2003	-0.000056
354.8441	-0.000225
355.4881	-0.001048
356.1321	0.000028
356.7763	0.000450
357.4206	0.000408
358.0650	-0.000373
358.7095	0.000534
359.3541	0.000619
359.9989	0.000766
360.6438	0.000134
361.2888	-0.001660
361.9339	-0.000141
362.5791	0.000766
363.2245	0.000577
363.8699	-0.000837
364.5155	-0.000541
365.1612	0.001315
365.8071	-0.000056
366.4530	0.000218
367.0991	0.000492
367.7453	0.001526
368.3916	-0.000183
369.0380	-0.000141
369.6845	0.000492
370.3312	0.001188
370.9780	0.000176
371.6249	0.001188
372.2719	0.000766
372.9190	0.000724
373.5663	0.001210
374.2136	-0.000816
374.8611	0.000534
375.5087	0.000049
376.1564	-0.000035
376.8043	-0.000879
377.4522	0.000049
378.1003	0.001146
378.7485	0.000323
379.3968	0.000028
380.0452	0.000766
380.6938	0.000239
381.3424	0.000197
381.9912	0.000281
382.6401	0.000049
383.2891	0.001357
383.9382	0.000682
384.5875	0.001041
385.2368	0.001505
385.8863	-0.000120
386.5359	-0.000120
387.1856	0.001252
387.8355	0.001800
388.4854	0.001800
389.1355	0.001674
389.7856	0.003446
390.4359	0.002876
391.0863	0.002855
391.7369	0.003150
392.3875	0.004479
393.0383	0.005007
393.6891	0.005935
394.3401	0.007517
394.9912	0.007665
395.6425	0.008867
396.2938	0.009648
396.9453	0.009542
397.5968	0.011399
398.2485	0.011863
398.9003	0.015639
399.5522	0.011568
400.2043	0.014078
400.8564	0.013361
401.5087	0.014985
402.1610	0.015829
402.8135	0.017981
403.4661	0.017306
404.1189	0.018213
404.7717	0.015829
405.4246	0.021989
406.0777	0.020112
406.7309	0.019922
407.3842	0.018719
408.0376	0.019289
408.6911	0.021251
409.3448	0.022010
409.9985	0.021609
410.6524	0.020090
411.3064	0.020027
411.9605	0.020322
412.6147	0.022833
413.2690	0.024394
413.9234	0.023192
414.5780	0.021124
415.2326	0.022791
415.8874	0.022031
416.5423	0.022981
417.1973	0.023107
417.8524	0.023445
418.5077	0.025069
419.1630	0.023613
419.8185	0.023972
420.4741	0.026883
421.1298	0.026293
421.7856	0.028339
422.4415	0.028571
423.0975	0.027769
423.7536	0.026461
424.4099	0.026504
425.0663	0.026672
425.7228	0.026356
426.3793	0.025259
427.0361	0.023213
427.6929	0.026883
428.3498	0.024900
429.0068	0.023698
429.6640	0.027833
430.3213	0.028529
430.9787	0.027938
431.6362	0.025554
432.2938	0.023888
432.9515	0.023297
433.6093	0.027390
434.2673	0.026377
434.9253	0.023613
435.5835	0.026546
436.2418	0.025428
436.9001	0.023613
437.5586	0.023445
438.2173	0.024605
438.8760	0.025111
439.5348	0.022706
440.1938	0.023255
440.8528	0.024753
441.5120	0.030259
442.1713	0.027558
442.8307	0.027790
443.4902	0.026968
444.1498	0.027748
444.8095	0.026356
445.4694	0.026525
446.1293	0.026440
446.7894	0.024436
447.4496	0.026208
448.1098	0.021504
448.7702	0.024921
449.4307	0.023149
450.0914	0.021799
450.7521	0.020850
451.4129	0.021483
452.0739	0.020196
452.7349	0.019985
453.3961	0.019500
454.0574	0.018339
454.7188	0.017137
455.3803	0.019057
456.0419	0.016736
456.7036	0.016082
457.3654	0.017158
458.0274	0.016230
458.6894	0.018129
459.3516	0.015871
460.0138	0.017453
460.6762	0.016314
461.3387	0.014373
462.0013	0.015048
462.6640	0.013825
463.3268	0.015217
463.9897	0.013087
464.6528	0.014416
465.3159	0.012496
465.9792	0.015407
466.6425	0.012137
467.3060	0.011019
467.9696	0.010661
468.6333	0.010028
469.2970	0.010956
469.9610	0.008382
470.6250	0.007391
471.2891	0.009922
471.9533	0.008066
472.6177	0.009479
473.2821	0.007454
473.9467	0.008572
474.6113	0.008340
475.2761	0.008256
475.9410	0.007074
476.6060	0.009057
477.2711	0.006526
477.9363	0.007538
478.6016	0.006336
479.2670	0.006800
479.9325	0.006694
480.5982	0.006378
481.2639	0.006673
481.9298	0.008656
482.5957	0.005176
483.2618	0.005471
483.9280	0.004859
484.5943	0.008319
485.2606	0.005745
485.9271	0.017137
486.5937	0.010914
487.2605	0.007876
487.9273	0.004943
488.5942	0.004711
489.2612	0.003741
489.9284	0.005112
490.5956	0.005112
491.2630	0.002623
491.9304	0.003087
492.5980	0.002222
493.2657	0.002771
493.9334	0.002623
494.6013	0.004036
495.2693	0.004247
495.9374	0.002306
496.6056	0.003045
497.2739	0.003340
497.9423	0.003403
498.6109	0.003150
499.2795	0.003741
499.9482	0.002306
500.6171	0.003699
501.2860	0.002707
501.9551	0.002897
502.6242	0.004627
503.2935	0.002623
503.9628	0.002623
504.6323	0.003636
505.3019	0.000956
505.9716	0.002306
506.6414	0.002686
507.3113	0.002960
507.9813	0.002771
508.6514	0.002581
509.3216	0.003235
509.9919	0.002560
510.6623	0.001758
511.3329	0.001990
512.0035	0.002391
512.6742	0.003741
513.3451	0.002391
514.0160	0.003150
514.6871	0.003446
515.3582	0.001800
516.0295	0.002644
516.7008	0.002792
517.3723	0.002243
518.0439	0.002222
518.7155	0.002222
519.3873	0.001969
520.0592	0.002096
520.7312	0.001716
521.4033	0.003024
522.0755	0.000977
522.7478	0.003193
523.4202	0.002433
524.0927	0.003509
524.7653	0.003636
525.4380	0.002138
526.1108	0.003382
526.7837	0.003825
527.4568	0.002855
528.1299	0.004395
528.8031	0.003319
529.4765	0.004859
530.1499	0.003277
530.8234	0.005534
531.4971	0.004669
532.1708	0.005281
532.8447	0.004880
533.5186	0.005471
534.1927	0.007960
534.8668	0.006315
535.5411	0.003847
536.2155	0.007011
536.8899	0.005851
537.5645	0.006146
538.2392	0.008129
538.9139	0.007834
539.5888	0.007918
540.2638	0.008888
540.9389	0.010893
541.6140	0.011610
542.2893	0.010407
542.9647	0.011336
543.6402	0.010935
544.3158	0.012348
544.9915	0.012601
545.6673	0.012580
546.3432	0.012622
547.0192	0.014838
547.6953	0.014901
548.3715	0.016842
549.0478	0.016441
549.7242	0.015386
550.4007	0.015829
551.0773	0.016588
551.7540	0.017475
552.4308	0.019078
553.1077	0.020090
553.7847	0.020470
554.4618	0.018951
555.1390	0.021673
555.8163	0.022010
556.4937	0.024014
557.1712	0.021230
557.8488	0.023192
558.5266	0.022116
559.2044	0.023782
559.8823	0.023170
560.5603	0.027073
561.2384	0.029584
561.9166	0.030934
562.5949	0.028993
563.2733	0.029921
563.9519	0.030934
564.6305	0.035427
565.3092	0.037832
565.9880	0.034963
566.6669	0.034731
567.3459	0.044393
568.0250	0.048739
568.7043	0.053274
569.3836	0.066881
570.0630	0.085910
570.7425	0.089074
571.4221	0.107133
572.1018	0.119790
572.7816	0.104538
573.4615	0.120086
574.1415	0.134578
574.8216	0.149008
575.5018	0.147996
576.1821	0.135464
576.8626	0.156750
577.5431	0.166855
578.2237	0.205461
578.9044	0.168311
579.5851	0.172615
580.2660	0.178416
580.9470	0.173923
581.6281	0.277272
582.3093	0.260290
582.9906	0.205609
583.6720	0.162151
584.3535	0.163965
585.0351	0.192213
585.7167	0.197381
586.3985	0.172530
587.0804	0.181285
587.7624	0.192192
588.4445	0.171771
589.1266	0.148966
589.8089	0.140148
590.4913	0.127575
591.1737	0.112196
591.8563	0.110888
592.5389	0.131435
593.2217	0.174492
593.9046	0.165147
594.5875	0.143882
595.2705	0.166012
595.9537	0.148059
596.6369	0.124326
597.3203	0.123060
598.0037	0.118841
598.6872	0.133017
599.3709	0.158586
600.0546	0.156603
600.7384	0.152742
601.4223	0.156350
602.1064	0.140063
602.7905	0.145316
603.4747	0.160273
604.1590	0.148671
604.8434	0.133840
605.5279	0.138819
606.2125	0.142468
606.8972	0.127469
607.5819	0.135654
608.2668	0.122596
608.9518	0.119410
609.6369	0.108609
610.3220	0.130127
611.0073	0.118018
611.6927	0.116267
612.3781	0.108799
613.0637	0.109748
613.7493	0.110424
614.4351	0.108145
615.1209	0.107470
615.8068	0.111774
616.4929	0.094728
617.1790	0.092429
617.8652	0.090762
618.5515	0.087724
619.2379	0.074856
619.9244	0.079223
620.6110	0.081290
621.2977	0.062599
621.9845	0.066966
622.6714	0.071733
623.3584	0.074792
624.0454	0.073147
624.7326	0.078780
625.4199	0.071248
626.1072	0.065215
626.7947	0.058548
627.4822	0.061924
628.1698	0.056987
628.8576	0.048992
629.5454	0.054540
630.2333	0.050110
630.9213	0.048380
631.6094	0.045870
632.2976	0.045047
632.9859	0.037642
633.6743	0.038064
634.3628	0.035891
635.0514	0.032558
635.7400	0.034119
636.4288	0.038507
637.1177	0.037284
637.8066	0.035575
638.4957	0.035976
639.1848	0.035343
639.8740	0.032641
640.5633	0.031459
641.2528	0.029123
641.9423	0.028459
642.6319	0.026222
643.3216	0.024002
644.0113	0.024523
644.7012	0.020372
645.3912	0.022344
646.0812	0.021456
646.7714	0.019307
647.4616	0.020525
648.1520	0.024563
648.8424	0.029868
649.5329	0.028709
650.2236	0.026734
650.9143	0.024597
651.6051	0.023949
652.2960	0.027873
652.9870	0.026544
653.6780	0.028271
654.3692	0.028811
655.0605	0.048212
655.7518	0.802785
656.4433	1.000000
657.1348	0.735932
657.8264	0.442375
658.5181	0.330671
659.2099	0.240054
659.9018	0.058704
660.5938	0.023247
661.2859	0.019754
661.9781	0.018478
662.6704	0.019019
663.3627	0.017607
664.0552	0.018885
664.7477	0.017944
665.4403	0.022390
666.1330	0.020636
666.8259	0.018355
667.5188	0.019713
668.2117	0.018150
668.9048	0.017496
669.5980	0.016610
670.2913	0.018192
670.9846	0.018129
671.6781	0.023824
672.3716	0.031018
673.0652	0.029183
673.7589	0.024626
674.4527	0.024183
675.1466	0.022875
675.8406	0.022875
676.5347	0.020913
677.2288	0.021335
677.9231	0.022938
678.6174	0.026609
679.3119	0.028276
680.0064	0.028318
680.7010	0.028212
681.3957	0.030111
682.0905	0.028086
682.7854	0.025892
683.4803	0.025829
684.1754	0.028677
684.8705	0.032432
685.5658	0.040406
686.2611	0.037326
686.9565	0.034815
687.6520	0.037178
688.3476	0.033592
689.0433	0.030006
689.7390	0.029752
690.4349	0.031103
691.1308	0.030301
691.8269	0.031018
692.5230	0.032558
693.2192	0.033107
693.9155	0.031609
694.6119	0.028212
695.3083	0.029309
696.0049	0.025913
696.7016	0.030364
697.3983	0.033697
698.0951	0.032980
698.7920	0.031292
699.4890	0.028423
700.1861	0.025934
700.8833	0.024478
701.5806	0.025575
702.2779	0.024774
702.9753	0.026377
703.6729	0.025618
704.3705	0.024415
705.0682	0.020660
705.7660	0.020597
706.4638	0.023635
707.1618	0.031588
707.8599	0.032790
708.5580	0.031946
709.2562	0.027938
709.9545	0.030892
710.6529	0.028887
711.3514	0.025554
712.0500	0.024246
712.7486	0.024795
713.4474	0.027643
714.1462	0.029647
714.8451	0.028972
715.5441	0.030217
716.2432	0.026440
716.9424	0.024352
717.6416	0.022685
718.3410	0.024246
719.0404	0.024162
719.7399	0.024753
720.4395	0.023888
721.1392	0.024415
721.8390	0.022875
722.5388	0.023635
723.2388	0.021251
723.9388	0.022896
724.6389	0.021778
725.3391	0.027200
726.0394	0.026904
726.7398	0.028803
727.4403	0.026609
728.1408	0.028318
728.8414	0.029056
729.5421	0.030596
730.2429	0.030195
730.9438	0.036250
731.6448	0.035069
732.3458	0.034963
733.0470	0.036566
733.7482	0.037178
734.4495	0.043043
735.1509	0.041376
735.8524	0.040701
736.5539	0.036988
737.2556	0.042537
737.9573	0.035912
738.6591	0.034077
739.3610	0.039309
740.0630	0.036820
740.7651	0.033550
741.4672	0.028381
742.1695	0.029668
742.8718	0.028677
743.5742	0.027242
744.2767	0.024204
744.9792	0.025955
745.6819	0.024921
746.3846	0.024668
747.0874	0.025322
747.7903	0.026419
748.4933	0.024563
749.1964	0.027263
749.8995	0.030723
750.6028	0.033318
751.3061	0.031778
752.0095	0.033360
752.7130	0.030660
753.4166	0.032643
754.1202	0.034140
754.8239	0.033740
755.5278	0.036735
756.2317	0.038507
756.9356	0.042220
757.6397	0.050363
758.3438	0.048233
759.0481	0.046355
759.7524	0.051059
760.4568	0.053928
761.1613	0.051945
761.8658	0.043275
762.5705	0.043212
763.2752	0.042347
763.9800	0.042874
764.6849	0.048422
765.3898	0.047536
766.0949	0.042072
766.8000	0.032917
767.5052	0.034119
768.2105	0.035849
768.9159	0.039014
769.6214	0.037959
770.3269	0.037009
771.0325	0.040448
771.7382	0.039773
772.4440	0.034499
773.1499	0.033761
773.8558	0.030533
774.5618	0.027580
775.2679	0.025027
775.9741	0.023297
776.6804	0.020829
777.3868	0.019626
778.0932	0.021377
778.7997	0.024964
779.5063	0.025596
780.2130	0.021103
780.9197	0.024985
781.6265	0.030174
782.3335	0.030681
783.0405	0.029077
783.7475	0.030596
784.4547	0.027706
785.1619	0.025153
785.8692	0.024183
786.5766	0.021926
787.2841	0.024014
787.9917	0.025681
788.6993	0.025955
789.4070	0.025301
790.1148	0.022432
790.8227	0.021630
791.5306	0.019690
792.2387	0.018719
792.9468	0.018129
793.6550	0.020280
794.3632	0.027347
795.0716	0.027685
795.7800	0.025470
796.4885	0.020512
797.1971	0.019120
797.9058	0.019922
798.6145	0.018129
799.3233	0.018614
800.0322	0.018002
800.7412	0.015386
801.4503	0.016124
802.1594	0.013530
802.8686	0.015259
803.5779	0.015428
804.2873	0.015344
804.9968	0.013487
805.7063	0.014373
806.4159	0.021356
807.1256	0.018529
807.8354	0.018993
808.5452	0.017517
809.2551	0.019310
809.9651	0.018234
810.6752	0.016399
811.3853	0.014838
812.0956	0.014247
812.8059	0.012179
813.5163	0.012475
814.2267	0.016230
814.9373	0.013867
815.6479	0.012707
816.3586	0.011568
817.0694	0.012601
817.7802	0.012074
818.4912	0.011610
819.2022	0.010513
819.9133	0.009521
820.6244	0.012918
821.3357	0.013825
822.0470	0.010618
822.7584	0.011357
823.4698	0.009606
824.1814	0.009353
824.8930	0.010007
825.6047	0.010787
826.3165	0.010871
827.0283	0.011631
827.7402	0.011968
828.4522	0.013466
829.1643	0.011821
829.8765	0.010239
830.5887	0.008087
831.3010	0.007032
832.0134	0.005154
832.7259	0.006821
833.4384	0.008129
834.1510	0.009564
834.8637	0.008361
835.5765	0.008171
836.2893	0.009205
837.0022	0.006230
837.7152	0.006062
838.4283	0.005935
839.1414	0.005260
839.8546	0.006568
840.5679	0.006526
841.2813	0.004205
841.9947	0.005176
842.7082	0.005197
843.4218	0.002032
844.1355	0.005429
844.8492	0.004965
845.5631	0.005218
846.2770	0.005197
846.9909	0.003783
847.7050	0.004374
848.4191	0.004121
849.1333	0.004922
849.8475	0.003825
850.5619	0.002897
851.2763	0.004859
851.9908	0.004627
852.7053	0.007116
853.4200	0.009985
854.1347	0.011779
854.8495	0.011019
855.5643	0.010618
856.2792	0.009500
856.9942	0.010281
857.7093	0.008361
858.4245	0.009564
859.1397	0.007370
859.8550	0.007454
860.5704	0.005872
861.2858	0.005766
862.0013	0.006040
862.7169	0.005998
863.4326	0.004922
864.1483	0.005365
864.8642	0.004627
865.5800	0.005176
866.2960	0.003699
867.0120	0.003425
867.7281	0.004205
868.4443	0.005239
869.1606	0.005682
869.8769	0.003593
870.5933	0.004057
871.3097	0.004606
872.0263	0.005239
872.7429	0.004880
873.4596	0.003868
874.1763	0.002792
874.8932	0.004184
875.6101	0.005492
876.3270	0.004290
877.0441	0.004100
877.7612	0.005176
878.4784	0.005112
879.1957	0.006251
879.9130	0.005998
880.6304	0.006273
881.3479	0.007791
882.0654	0.004374
882.7831	0.004395
883.5007	0.005661
884.2185	0.004564
884.9363	0.006167
885.6542	0.006040
886.3722	0.005387
887.0903	0.005049
887.8084	0.006230
888.5266	0.004437
889.2448	0.005302
889.9632	0.004036
890.6816	0.004247
891.4001	0.003678
892.1186	0.004880
892.8372	0.004690
893.5559	0.005914
894.2747	0.002328
894.9935	0.003530
895.7124	0.003910
896.4314	0.003825
897.1504	0.003868
897.8695	0.003593
898.5887	0.003678
899.3079	0.002496
900.0272	0.003087
900.7466	0.004922
901.4661	0.002771
902.1856	0.003762
902.9052	0.002412
903.6249	0.003340
904.3446	0.004437
905.0644	0.004184
905.7843	0.002665
906.5043	0.003298
907.2243	0.002475
907.9444	0.003847
908.6645	0.003657
909.3847	0.003403
910.1050	0.002412
910.8254	0.004247
911.5458	0.003256
912.2663	0.003847
912.9869	0.003256
913.7075	0.002581
914.4283	0.003235
915.1490	0.004142
915.8699	0.002391
916.5908	0.004121
917.3118	0.002328
918.0328	0.003868
918.7539	0.003699
919.4751	0.002897
920.1964	0.003593
920.9177	0.002623
921.6391	0.002011
922.3606	0.004543
923.0821	0.002032
923.8037	0.002897
924.5254	0.001146
925.2471	0.001948
925.9689	0.002728
926.6908	0.003129
927.4127	0.001885
928.1347	0.001800
928.8568	0.001716
929.5789	0.002412
930.3011	0.000577
931.0234	0.001863
931.7457	0.001716
932.4681	0.002897
933.1906	0.001695
933.9131	0.002644
934.6358	0.001631
935.3584	0.001610
936.0812	0.002707
936.8040	0.000155
937.5269	0.000640
938.2498	0.000788
938.9728	0.000935
939.6959	0.000830
940.4190	0.000703
941.1422	0.001631
941.8655	0.000577
942.5889	0.001758
943.3123	0.001547
944.0357	0.001821
944.7593	0.000197
945.4829	-0.000478
946.2066	-0.000267
946.9303	0.000619
947.6541	0.000302
948.3780	0.000260
949.1019	0.001062
949.8259	0.001842
950.5500	0.001906
951.2741	0.000556
951.9983	0.001231
952.7226	0.000492
953.4469	0.002517
954.1713	0.000766
954.8958	0.000450
955.6203	0.001631
956.3449	0.001210
957.0696	-0.000689
957.7943	0.000387
958.5191	0.000260
959.2439	0.001399
959.9688	0.000598
960.6938	0.001631
961.4189	0.000872
962.1440	0.001020
962.8692	0.000682
963.5944	0.000640
964.3197	0.000049
965.0451	-0.000035
965.7705	0.000935
966.4960	0.001357
967.2216	0.000197
967.9472	0.000450
968.6729	0.000977
969.3987	0.000218
970.1245	0.000619
970.8504	0.000766
971.5763	0.000239
972.3023	0.002159
973.0284	0.000935
973.7545	0.002117
974.4807	0.000323
975.2070	0.000830
975.9333	0.000155
976.6597	0.000598
977.3862	0.001125
978.1127	0.001716
978.8393	0.000197
979.5659	-0.000457
980.2926	-0.000120
981.0194	0.000809
981.7462	-0.000900
982.4731	0.001399
983.2001	-0.000541
983.9271	-0.000457
984.6542	0.000429
985.3814	0.000977
986.1086	-0.000077
986.8358	0.000323
987.5632	0.000429
988.2906	0.000956
989.0180	0.000218
989.7456	0.001568
990.4732	0.000577
991.2008	-0.000056
991.9285	0.001273
992.6563	0.001167
993.3841	-0.000288
994.1120	-0.000921
994.8400	-0.001238
995.5680	-0.000035
996.2961	-0.000035
997.0242	0.000703
997.7524	-0.000795
998.4807	0.000070
999.2090	-0.000162
999.9374	0.000914
1000.67	0.001167
1001.39	-0.000415
1002.12	0.000134
1002.85	-0.000774
1003.58	0.000176
1004.31	-0.000879
1005.04	0.000809
1005.77	0.000049
1006.5	0.000091
1007.22	0.000471
1007.95	-0.000331
1008.68	-0.000963
1009.41	0.000893
1010.14	-0.000056
1010.87	0.000366
1011.6	-0.000457
1012.33	0.000155
1013.06	0.000598
1013.79	0.000471
1014.52	0.000302
1015.25	-0.000035
1015.98	-0.000162
1016.71	0.001020
1017.44	0.000007
1018.17	0.000281
1018.9	-0.000141
1019.63	0.000893
1020.36	-0.000520
1021.09	0.000661
1021.82	-0.000077
1022.55	-0.000520
1023.03	0.000387