File: Auto_Polymerization/Data/UV_VIS_Spectra/MRG-061-F5_spectra_while_stopped_with_alu_foil/spectrum_2025-06-20_10-08-03.txt
# Wavelength (nm)	Intensity (a.u.)
197.7802	0.000987
198.3922	0.000459
199.0044	0.002042
199.6168	-0.000005
200.2292	-0.000702
200.8418	0.000079
201.4546	0.000564
202.0674	0.000818
202.6805	0.000375
203.2936	0.000375
203.9069	0.000691
204.5203	0.000564
205.1338	0.001029
205.7475	0.000142
206.3614	-0.000195
206.9753	0.000206
207.5894	0.001999
208.2036	0.000628
208.8180	0.000100
209.4325	-0.000533
210.0471	-0.000702
210.6618	0.000396
211.2767	0.000543
211.8918	-0.000322
212.5069	-0.000047
213.1222	-0.000280
213.7376	0.001240
214.3532	-0.001335
214.9689	-0.000026
215.5847	-0.000470
216.2007	0.000100
216.8168	-0.000069
217.4330	-0.000026
218.0494	-0.000259
218.6659	0.001092
219.2825	-0.000132
219.8992	0.000691
220.5161	-0.000047
221.1332	-0.000554
221.7503	0.000058
222.3676	0.000185
222.9850	-0.001398
223.6026	-0.000723
224.2203	-0.001335
224.8381	0.001113
225.4561	-0.002052
226.0742	0.000353
226.6924	-0.000638
227.3107	-0.000216
227.9292	-0.000385
228.5478	0.001535
229.1666	0.000269
229.7855	0.000100
230.4045	0.000332
231.0236	-0.000280
231.6429	0.000754
232.2623	0.001113
232.8818	-0.000659
233.5015	-0.000301
234.1213	-0.000280
234.7413	0.000628
235.3613	0.000353
235.9815	-0.000617
236.6018	0.000206
237.2223	0.001345
237.8429	-0.001229
238.4636	-0.000174
239.0845	-0.000913
239.7055	-0.000913
240.3266	-0.000976
240.9478	0.000607
241.5692	0.000311
242.1907	0.000818
242.8124	0.000564
243.4341	0.000206
244.0560	-0.000554
244.6781	0.001198
245.3002	-0.000470
245.9225	0.000121
246.5449	-0.000343
247.1675	0.000142
247.7902	-0.000955
248.4130	-0.000385
249.0359	-0.000533
249.6590	-0.000744
250.2822	-0.000216
250.9056	0.000164
251.5290	0.000248
252.1526	0.000649
252.7763	-0.000491
253.4002	-0.001018
254.0242	0.000016
254.6483	0.001620
255.2725	-0.000406
255.8969	0.000079
256.5214	-0.000786
257.1460	-0.000090
257.7708	0.000776
258.3957	-0.000195
259.0207	-0.001546
259.6459	0.001303
260.2711	-0.000870
260.8965	0.001092
261.5221	-0.000575
262.1477	0.000227
262.7735	-0.000427
263.3995	-0.000322
264.0255	-0.001039
264.6517	-0.000322
265.2780	0.000100
265.9044	0.001683
266.5310	-0.000427
267.1577	0.000375
267.7845	-0.000406
268.4114	0.000142
269.0385	-0.000237
269.6657	-0.000237
270.2931	0.000586
270.9205	0.001472
271.5481	0.000121
272.1758	-0.001356
272.8037	0.001176
273.4316	0.001071
274.0597	-0.000828
274.6880	0.000248
275.3163	-0.000491
275.9448	0.000100
276.5734	0.000501
277.2022	-0.000491
277.8310	-0.000892
278.4600	0.000206
279.0891	-0.000596
279.7184	0.000227
280.3477	-0.001799
280.9772	0.000691
281.6069	-0.001335
282.2366	0.000754
282.8665	-0.000343
283.4965	0.000269
284.1266	-0.001060
284.7569	-0.000702
285.3873	-0.000364
286.0178	0.000438
286.6484	0.001324
287.2792	-0.000596
287.9101	-0.001419
288.5411	0.000058
289.1723	0.000269
289.8035	-0.000280
290.4349	-0.000047
291.0665	0.001472
291.6981	-0.000470
292.3299	0.001535
292.9618	-0.000575
293.5938	0.000818
294.2260	-0.000047
294.8582	-0.000554
295.4906	0.000860
296.1232	0.000459
296.7558	-0.000934
297.3886	0.000079
298.0215	0.000522
298.6545	0.000797
299.2877	-0.000132
299.9210	0.000142
300.5544	-0.001060
301.1879	-0.000069
301.8215	0.000375
302.4553	0.001113
303.0892	-0.000174
303.7233	0.000290
304.3574	-0.001250
304.9917	-0.000870
305.6261	-0.000047
306.2606	-0.000807
306.8953	0.001746
307.5301	-0.000301
308.1650	-0.000448
308.8000	0.000797
309.4351	0.000016
310.0704	-0.000385
310.7058	-0.000427
311.3413	-0.000427
311.9770	-0.000596
312.6127	-0.001145
313.2486	0.000438
313.8846	-0.000617
314.5208	-0.000153
315.1570	0.000818
315.7934	0.001430
316.4299	0.000269
317.0666	0.000100
317.7033	0.000164
318.3402	-0.000026
318.9772	0.000016
319.6143	-0.001588
320.2516	0.000501
320.8890	-0.000723
321.5265	0.000185
322.1641	-0.000849
322.8018	0.001219
323.4397	0.000269
324.0777	0.000459
324.7158	-0.000491
325.3540	-0.000069
325.9924	0.000733
326.6308	-0.001018
327.2694	-0.000427
327.9082	0.000860
328.5470	0.000586
329.1860	-0.000005
329.8251	-0.000364
330.4643	0.001113
331.1036	0.000290
331.7431	-0.000090
332.3826	-0.000259
333.0223	-0.001018
333.6622	0.000396
334.3021	-0.000153
334.9422	-0.000892
335.5823	-0.000913
336.2227	-0.000322
336.8631	0.000037
337.5036	-0.000301
338.1443	-0.000111
338.7851	-0.000448
339.4260	0.000628
340.0670	-0.000280
340.7082	-0.000237
341.3495	-0.000659
341.9909	-0.000259
342.6324	0.000016
343.2740	0.000501
343.9158	0.000628
344.5577	-0.001145
345.1997	-0.000301
345.8418	0.000058
346.4840	-0.000005
347.1264	0.000543
347.7689	-0.000427
348.4115	0.000353
349.0542	-0.000849
349.6971	0.000353
350.3400	0.000311
350.9831	0.000142
351.6263	0.000564
352.2696	-0.000385
352.9131	0.000902
353.5566	0.000607
354.2003	-0.000470
354.8441	-0.000301
355.4881	-0.000596
356.1321	-0.000195
356.7763	-0.000470
357.4206	0.000776
358.0650	-0.000427
358.7095	-0.000512
359.3541	0.000543
359.9989	0.001556
360.6438	-0.000111
361.2888	-0.001293
361.9339	-0.000849
362.5791	-0.000427
363.2245	0.000248
363.8699	-0.000575
364.5155	-0.000280
365.1612	-0.000807
365.8071	0.000375
366.4530	0.001134
367.0991	0.001641
367.7453	-0.000237
368.3916	0.000396
369.0380	-0.000343
369.6845	-0.000111
370.3312	0.000797
370.9780	-0.000280
371.6249	0.000987
372.2719	0.000712
372.9190	0.000965
373.5663	0.000396
374.2136	0.001240
374.8611	0.000142
375.5087	0.001852
376.1564	-0.000322
376.8043	0.000712
377.4522	-0.000216
378.1003	0.000944
378.7485	-0.001060
379.3968	0.000881
380.0452	0.000776
380.6938	0.000860
381.3424	0.000480
381.9912	-0.000659
382.6401	-0.000512
383.2891	-0.001187
383.9382	-0.000069
384.5875	0.000248
385.2368	0.000227
385.8863	0.000754
386.5359	0.001852
387.1856	0.000691
387.8355	-0.000448
388.4854	0.000754
389.1355	0.000206
389.7856	0.000923
390.4359	-0.000470
391.0863	0.000058
391.7369	-0.000005
392.3875	0.000100
393.0383	-0.000575
393.6891	0.000860
394.3401	0.000733
394.9912	0.002021
395.6425	0.000501
396.2938	0.001788
396.9453	0.001219
397.5968	0.003561
398.2485	0.004321
398.9003	0.004574
399.5522	0.002105
400.2043	0.004447
400.8564	0.004046
401.5087	0.003688
402.1610	0.003498
402.8135	0.006304
403.4661	0.005249
404.1189	0.005313
404.7717	0.005207
405.4246	0.007549
406.0777	0.007760
406.7309	0.007782
407.3842	0.006431
408.0376	0.005946
408.6911	0.008436
409.3448	0.007824
409.9985	0.008478
410.6524	0.007929
411.3064	0.008330
411.9605	0.006853
412.6147	0.009850
413.2690	0.010651
413.9234	0.008794
414.5780	0.009470
415.2326	0.008499
415.8874	0.012044
416.5423	0.009343
417.1973	0.009807
417.8524	0.012382
418.5077	0.010905
419.1630	0.013078
419.8185	0.012973
420.4741	0.011749
421.1298	0.014281
421.7856	0.015083
422.4415	0.014956
423.0975	0.015463
423.7536	0.014830
424.4099	0.015273
425.0663	0.013901
425.7228	0.014302
426.3793	0.013036
427.0361	0.015273
427.6929	0.015484
428.3498	0.016497
429.0068	0.015189
429.6640	0.018818
430.3213	0.017109
430.9787	0.018755
431.6362	0.015632
432.2938	0.015843
432.9515	0.015632
433.6093	0.017995
434.2673	0.018269
434.9253	0.018586
435.5835	0.014935
436.2418	0.017510
436.9001	0.015442
437.5586	0.017446
438.2173	0.017257
438.8760	0.018649
439.5348	0.017510
440.1938	0.019177
440.8528	0.016539
441.5120	0.022047
442.1713	0.022152
442.8307	0.020928
443.4902	0.021456
444.1498	0.022237
444.8095	0.019789
445.4694	0.018227
446.1293	0.020105
446.7894	0.017805
447.4496	0.019114
448.1098	0.019050
448.7702	0.018544
449.4307	0.018333
450.0914	0.014872
450.7521	0.018058
451.4129	0.016328
452.0739	0.015737
452.7349	0.015632
453.3961	0.015484
454.0574	0.015231
454.7188	0.015589
455.3803	0.014682
456.0419	0.014577
456.7036	0.015083
457.3654	0.013184
458.0274	0.014471
458.6894	0.014745
459.3516	0.013796
460.0138	0.014176
460.6762	0.012150
461.3387	0.013395
462.0013	0.013078
462.6640	0.013184
463.3268	0.009280
463.9897	0.010609
464.6528	0.012065
465.3159	0.011728
465.9792	0.012445
466.6425	0.011538
467.3060	0.009596
467.9696	0.008140
468.6333	0.008731
469.2970	0.010061
469.9610	0.007824
470.6250	0.006959
471.2891	0.006368
471.9533	0.006705
472.6177	0.007486
473.2821	0.006262
473.9467	0.007592
474.6113	0.006959
475.2761	0.006473
475.9410	0.005692
476.6060	0.006009
477.2711	0.005903
477.9363	0.004869
478.6016	0.004532
479.2670	0.006009
479.9325	0.005228
480.5982	0.006325
481.2639	0.005038
481.9298	0.005524
482.5957	0.005228
483.2618	0.005587
483.9280	0.003962
484.5943	0.006937
485.2606	0.004785
485.9271	0.014387
486.5937	0.011664
487.2605	0.008394
487.9273	0.003266
488.5942	0.003055
489.2612	0.003498
489.9284	0.004447
490.5956	0.003962
491.2630	0.004110
491.9304	0.002780
492.5980	0.001978
493.2657	0.003055
493.9334	0.003033
494.6013	0.003477
495.2693	0.002590
495.9374	0.002422
496.6056	0.003603
497.2739	0.001725
497.9423	0.002105
498.6109	0.002759
499.2795	0.003097
499.9482	0.003434
500.6171	0.002675
501.2860	0.001198
501.9551	0.002105
502.6242	0.001999
503.2935	0.001704
503.9628	0.001894
504.6323	0.001240
505.3019	0.001261
505.9716	0.001261
506.6414	0.001493
507.3113	0.002485
507.9813	0.002084
508.6514	0.003329
509.3216	0.001936
509.9919	0.001092
510.6623	0.003266
511.3329	0.002949
512.0035	0.002506
512.6742	0.002611
513.3451	0.001915
514.0160	0.002337
514.6871	0.002042
515.3582	0.001535
516.0295	0.002042
516.7008	0.003519
517.3723	0.003033
518.0439	0.003202
518.7155	0.002548
519.3873	0.002274
520.0592	0.002021
520.7312	0.001303
521.4033	0.001134
522.0755	0.002506
522.7478	0.003033
523.4202	0.002126
524.0927	0.003519
524.7653	0.002358
525.4380	0.003033
526.1108	0.002928
526.7837	0.003814
527.4568	0.003371
528.1299	0.003202
528.8031	0.004806
529.4765	0.003983
530.1499	0.004363
530.8234	0.003055
531.4971	0.004447
532.1708	0.004827
532.8447	0.004279
533.5186	0.004891
534.1927	0.004658
534.8668	0.006368
535.5411	0.006663
536.2155	0.007212
536.8899	0.005988
537.5645	0.007549
538.2392	0.007001
538.9139	0.007950
539.5888	0.007697
540.2638	0.007676
540.9389	0.008541
541.6140	0.007296
542.2893	0.009449
542.9647	0.009090
543.6402	0.011200
544.3158	0.011327
544.9915	0.011559
545.6673	0.011411
546.3432	0.010018
547.0192	0.010166
547.6953	0.012698
548.3715	0.016455
549.0478	0.013226
549.7242	0.015315
550.4007	0.014176
551.0773	0.014956
551.7540	0.014851
552.4308	0.017995
553.1077	0.018797
553.7847	0.018734
554.4618	0.017299
555.1390	0.019472
555.8163	0.018122
556.4937	0.020781
557.1712	0.020844
557.8488	0.019937
558.5266	0.020654
559.2044	0.019641
559.8823	0.023630
560.5603	0.026732
561.2384	0.028568
561.9166	0.027301
562.5949	0.026753
563.2733	0.028082
563.9519	0.028293
564.6305	0.031775
565.3092	0.033294
565.9880	0.031902
566.6669	0.034202
567.3459	0.041799
568.0250	0.043255
568.7043	0.051611
569.3836	0.059926
570.0630	0.077314
570.7425	0.082442
571.4221	0.097362
572.1018	0.107491
572.7816	0.091938
573.4615	0.110825
574.1415	0.124668
574.8216	0.137161
575.5018	0.137520
576.1821	0.124584
576.8626	0.141170
577.5431	0.151912
578.2237	0.190782
578.9044	0.155963
579.5851	0.160078
580.2660	0.164151
580.9470	0.159783
581.6281	0.259366
582.3093	0.242167
582.9906	0.188862
583.6720	0.153431
584.3535	0.154549
585.0351	0.177467
585.7167	0.187364
586.3985	0.158327
587.0804	0.168498
587.7624	0.178290
588.4445	0.159952
589.1266	0.137625
589.8089	0.124816
590.4913	0.122368
591.1737	0.102764
591.8563	0.105655
592.5389	0.124394
593.2217	0.164235
593.9046	0.153515
594.5875	0.134903
595.2705	0.159044
595.9537	0.136169
596.6369	0.116270
597.3203	0.120448
598.0037	0.116734
598.6872	0.124732
599.3709	0.147839
600.0546	0.142690
600.7384	0.145665
601.4223	0.143745
602.1064	0.138068
602.7905	0.135030
603.4747	0.149464
604.1590	0.139862
604.8434	0.124689
605.5279	0.132540
606.2125	0.138533
606.8972	0.126082
607.5819	0.127053
608.2668	0.119372
608.9518	0.118042
609.6369	0.106056
610.3220	0.122263
611.0073	0.112555
611.6927	0.110888
612.3781	0.104811
613.0637	0.103481
613.7493	0.103080
614.4351	0.103017
615.1209	0.103207
615.8068	0.106394
616.4929	0.093120
617.1790	0.089026
617.8652	0.089912
618.5515	0.083835
619.2379	0.073621
619.9244	0.074845
620.6110	0.075584
621.2977	0.060179
621.9845	0.066109
622.6714	0.069211
623.3584	0.071363
624.0454	0.068599
624.7326	0.073368
625.4199	0.068704
626.1072	0.062416
626.7947	0.056993
627.4822	0.058195
628.1698	0.055199
628.8576	0.048699
629.5454	0.049206
630.2333	0.049353
630.9213	0.045914
631.6094	0.041925
632.2976	0.042369
632.9859	0.036671
633.6743	0.037578
634.3628	0.033801
635.0514	0.033105
635.7400	0.034751
636.4288	0.037726
637.1177	0.035848
637.8066	0.033337
638.4957	0.034518
639.1848	0.033105
639.8740	0.031044
640.5633	0.028329
641.2528	0.028993
641.9423	0.025784
642.6319	0.023837
643.3216	0.026803
644.0113	0.023912
644.7012	0.023043
645.3912	0.022405
646.0812	0.022118
646.7714	0.020300
647.4616	0.018632
648.1520	0.024755
648.8424	0.026705
649.5329	0.029796
650.2236	0.025384
650.9143	0.021937
651.6051	0.022928
652.2960	0.023748
652.9870	0.027008
653.6780	0.026253
654.3692	0.027114
655.0605	0.047276
655.7518	0.786803
656.4433	1.000000
657.1348	0.710002
657.8264	0.429272
658.5181	0.321080
659.2099	0.236802
659.9018	0.058329
660.5938	0.023221
661.2859	0.019769
661.9781	0.018175
662.6704	0.018779
663.3627	0.017178
664.0552	0.018858
664.7477	0.018861
665.4403	0.019654
666.1330	0.017754
666.8259	0.018012
667.5188	0.017577
668.2117	0.016804
668.9048	0.019325
669.5980	0.017362
670.2913	0.017742
670.9846	0.019198
671.6781	0.024579
672.3716	0.028504
673.0652	0.027723
673.7589	0.025149
674.4527	0.021118
675.1466	0.022427
675.8406	0.021287
676.5347	0.020359
677.2288	0.019325
677.9231	0.023039
678.6174	0.024685
679.3119	0.026014
680.0064	0.029053
680.7010	0.029137
681.3957	0.027745
682.0905	0.027512
682.7854	0.025128
683.4803	0.025634
684.1754	0.028673
684.8705	0.029095
685.5658	0.038190
686.2611	0.035130
686.9565	0.036797
687.6520	0.034793
688.3476	0.032134
689.0433	0.030340
689.7390	0.031881
690.4349	0.027407
691.1308	0.030952
691.8269	0.031248
692.5230	0.031923
693.2192	0.032493
693.9155	0.030214
694.6119	0.028103
695.3083	0.028842
696.0049	0.024368
696.7016	0.030551
697.3983	0.032387
698.0951	0.032092
698.7920	0.031100
699.4890	0.028082
700.1861	0.026457
700.8833	0.024621
701.5806	0.022511
702.2779	0.023946
702.9753	0.025212
703.6729	0.023102
704.3705	0.023144
705.0682	0.021182
705.7660	0.020570
706.4638	0.026183
707.1618	0.030150
707.8599	0.031163
708.5580	0.030783
709.2562	0.028314
709.9545	0.028230
710.6529	0.028610
711.3514	0.025845
712.0500	0.022891
712.7486	0.024769
713.4474	0.025571
714.1462	0.029285
714.8451	0.027491
715.5441	0.028209
716.2432	0.022764
716.9424	0.024052
717.6416	0.020380
718.3410	0.022448
719.0404	0.023271
719.7399	0.023039
720.4395	0.022110
721.1392	0.024220
721.8390	0.024474
722.5388	0.023376
723.2388	0.021836
723.9388	0.023777
724.6389	0.021266
725.3391	0.025845
726.0394	0.028061
726.7398	0.028757
727.4403	0.025845
728.1408	0.025655
728.8414	0.029412
729.5421	0.029960
730.2429	0.030657
730.9438	0.034624
731.6448	0.035848
732.3458	0.036164
733.0470	0.036143
733.7482	0.036755
734.4495	0.044289
735.1509	0.039393
735.8524	0.039393
736.5539	0.041419
737.2556	0.041356
737.9573	0.037409
738.6591	0.035236
739.3610	0.039815
740.0630	0.036987
740.7651	0.032260
741.4672	0.029623
742.1695	0.027027
742.8718	0.028757
743.5742	0.024875
744.2767	0.025170
744.9792	0.025402
745.6819	0.024706
746.3846	0.022237
747.0874	0.024094
747.7903	0.024769
748.4933	0.021604
749.1964	0.024727
749.8995	0.029496
750.6028	0.035974
751.3061	0.031163
752.0095	0.033105
752.7130	0.031606
753.4166	0.028441
754.1202	0.035236
754.8239	0.031754
755.5278	0.034054
756.2317	0.036840
756.9356	0.043255
757.6397	0.048045
758.3438	0.046441
759.0481	0.044880
759.7524	0.049121
760.4568	0.051168
761.1613	0.050683
761.8658	0.041229
762.5705	0.039245
763.2752	0.039541
763.9800	0.042685
764.6849	0.049227
765.3898	0.046716
766.0949	0.043339
766.8000	0.033337
767.5052	0.031501
768.2105	0.034392
768.9159	0.037051
769.6214	0.036418
770.3269	0.034793
771.0325	0.039562
771.7382	0.036017
772.4440	0.034751
773.1499	0.034012
773.8558	0.031058
774.5618	0.026732
775.2679	0.022089
775.9741	0.021308
776.6804	0.021920
777.3868	0.019873
778.0932	0.020380
778.7997	0.024431
779.5063	0.029665
780.2130	0.026225
780.9197	0.024453
781.6265	0.028757
782.3335	0.026900
783.0405	0.027787
783.7475	0.027850
784.4547	0.024094
785.1619	0.023777
785.8692	0.023988
786.5766	0.023714
787.2841	0.022321
787.9917	0.025740
788.6993	0.025064
789.4070	0.025824
790.1148	0.021920
790.8227	0.020464
791.5306	0.019683
792.2387	0.017320
792.9468	0.017953
793.6550	0.019515
794.3632	0.025360
795.0716	0.024474
795.7800	0.024832
796.4885	0.020211
797.1971	0.017383
797.9058	0.019641
798.6145	0.018333
799.3233	0.018375
800.0322	0.015716
800.7412	0.015885
801.4503	0.016940
802.1594	0.014302
802.8686	0.013732
803.5779	0.015568
804.2873	0.015421
804.9968	0.014513
805.7063	0.013648
806.4159	0.018248
807.1256	0.020738
807.8354	0.019683
808.5452	0.019092
809.2551	0.017235
809.9651	0.017700
810.6752	0.016117
811.3853	0.016560
812.0956	0.013901
812.8059	0.012002
813.5163	0.012635
814.2267	0.016201
814.9373	0.014302
815.6479	0.012255
816.3586	0.011833
817.0694	0.012255
817.7802	0.012023
818.4912	0.011263
819.2022	0.010757
819.9133	0.009955
820.6244	0.012783
821.3357	0.012825
822.0470	0.011939
822.7584	0.010356
823.4698	0.008837
824.1814	0.008900
824.8930	0.008668
825.6047	0.010863
826.3165	0.011052
827.0283	0.011285
827.7402	0.010082
828.4522	0.011158
829.1643	0.011749
829.8765	0.009807
830.5887	0.008267
831.3010	0.007486
832.0134	0.006051
832.7259	0.004954
833.4384	0.006916
834.1510	0.008647
834.8637	0.009364
835.5765	0.007676
836.2893	0.007402
837.0022	0.006663
837.7152	0.005418
838.4283	0.006093
839.1414	0.004637
839.8546	0.005988
840.5679	0.005861
841.2813	0.005291
841.9947	0.005249
842.7082	0.004447
843.4218	0.004384
844.1355	0.003434
844.8492	0.005988
845.5631	0.005165
846.2770	0.003983
846.9909	0.003814
847.7050	0.003983
848.4191	0.004173
849.1333	0.004975
849.8475	0.003983
850.5619	0.002886
851.2763	0.003751
851.9908	0.005207
852.7053	0.007127
853.4200	0.010145
854.1347	0.010820
854.8495	0.011643
855.5643	0.009069
856.2792	0.010799
856.9942	0.009554
857.7093	0.008984
858.4245	0.007676
859.1397	0.007170
859.8550	0.006325
860.5704	0.006157
861.2858	0.006304
862.0013	0.006009
862.7169	0.005925
863.4326	0.006030
864.1483	0.005144
864.8642	0.004405
865.5800	0.005798
866.2960	0.002569
867.0120	0.003730
867.7281	0.004869
868.4443	0.005418
869.1606	0.002970
869.8769	0.004975
870.5933	0.004806
871.3097	0.004152
872.0263	0.004490
872.7429	0.002485
873.4596	0.002801
874.1763	0.003899
874.8932	0.004595
875.6101	0.003941
876.3270	0.004785
877.0441	0.003730
877.7612	0.004637
878.4784	0.005714
879.1957	0.005967
879.9130	0.005650
880.6304	0.006642
881.3479	0.005038
882.0654	0.003772
882.7831	0.004912
883.5007	0.004511
884.2185	0.005608
884.9363	0.005756
885.6542	0.004764
886.3722	0.006452
887.0903	0.004279
887.8084	0.005228
888.5266	0.004321
889.2448	0.003392
889.9632	0.004173
890.6816	0.003223
891.4001	0.003287
892.1186	0.003456
892.8372	0.005017
893.5559	0.003139
894.2747	0.002485
894.9935	0.002886
895.7124	0.004553
896.4314	0.002105
897.1504	0.002801
897.8695	0.004679
898.5887	0.003519
899.3079	0.003223
900.0272	0.002928
900.7466	0.003477
901.4661	0.003582
902.1856	0.004532
902.9052	0.002928
903.6249	0.004152
904.3446	0.003983
905.0644	0.003730
905.7843	0.003033
906.5043	0.002633
907.2243	0.002970
907.9444	0.004405
908.6645	0.003012
909.3847	0.003856
910.1050	0.002379
910.8254	0.002654
911.5458	0.002844
912.2663	0.005059
912.9869	0.002696
913.7075	0.002316
914.4283	0.001493
915.1490	0.003139
915.8699	0.001831
916.5908	0.002759
917.3118	0.003624
918.0328	0.003582
918.7539	0.001641
919.4751	0.002780
920.1964	0.002464
920.9177	0.002422
921.6391	0.002316
922.3606	0.002822
923.0821	0.001683
923.8037	0.001831
924.5254	0.001282
925.2471	0.002928
925.9689	0.002633
926.6908	0.002569
927.4127	0.001725
928.1347	0.002590
928.8568	0.003202
929.5789	0.001261
930.3011	0.001662
931.0234	0.001936
931.7457	0.000860
932.4681	0.002527
933.1906	0.001176
933.9131	0.002928
934.6358	0.001746
935.3584	0.000691
936.0812	0.000311
936.8040	0.001894
937.5269	-0.000026
938.2498	0.000459
938.9728	0.001746
939.6959	0.000311
940.4190	0.002611
941.1422	0.001071
941.8655	0.002274
942.5889	0.000375
943.3123	0.001873
944.0357	0.000353
944.7593	0.001430
945.4829	0.002295
946.2066	-0.000364
946.9303	0.000501
947.6541	0.000353
948.3780	0.002443
949.1019	0.001071
949.8259	0.000037
950.5500	0.001282
951.2741	-0.000364
951.9983	0.001746
952.7226	0.000628
953.4469	0.001050
954.1713	0.001198
954.8958	-0.000280
955.6203	0.000311
956.3449	0.000818
957.0696	0.000944
957.7943	0.001113
958.5191	-0.000364
959.2439	0.001324
959.9688	0.000353
960.6938	0.002844
961.4189	0.000185
962.1440	0.000269
962.8692	-0.000997
963.5944	0.000332
964.3197	0.001409
965.0451	-0.000195
965.7705	0.000353
966.4960	0.001092
967.2216	0.000417
967.9472	0.000058
968.6729	0.001282
969.3987	0.000522
970.1245	-0.000659
970.8504	-0.000301
971.5763	0.000522
972.3023	0.000691
973.0284	0.000353
973.7545	0.000607
974.4807	0.000965
975.2070	0.001029
975.9333	-0.000892
976.6597	0.000206
977.3862	0.000142
978.1127	-0.000216
978.8393	0.000754
979.5659	-0.000069
980.2926	0.001556
981.0194	-0.001145
981.7462	0.000965
982.4731	0.000607
983.2001	0.000058
983.9271	-0.000765
984.6542	0.000290
985.3814	0.000543
986.1086	0.000142
986.8358	0.000206
987.5632	0.001008
988.2906	0.000396
989.0180	0.000417
989.7456	-0.000491
990.4732	-0.001124
991.2008	-0.000090
991.9285	-0.000153
992.6563	0.000353
993.3841	0.000290
994.1120	0.001894
994.8400	-0.000870
995.5680	-0.000237
996.2961	0.000037
997.0242	0.001092
997.7524	-0.000195
998.4807	-0.000280
999.2090	-0.000681
999.9374	-0.000659
1000.67	0.000290
1001.39	-0.001166
1002.12	0.001155
1002.85	0.000142
1003.58	-0.000237
1004.31	-0.001187
1005.04	0.000944
1005.77	0.000290
1006.5	-0.001588
1007.22	-0.001145
1007.95	0.000923
1008.68	0.001430
1009.41	0.001282
1010.14	0.000121
1010.87	0.000881
1011.6	-0.000174
1012.33	0.000522
1013.06	-0.001250
1013.79	-0.000195
1014.52	-0.000153
1015.25	0.000269
1015.98	0.000079
1016.71	0.001071
1017.44	0.001366
1018.17	0.000480
1018.9	-0.000301
1019.63	-0.000280
1020.36	-0.000090
1021.09	0.000860
1021.82	-0.001293
1022.55	-0.000343
1023.03	0.000037