File: Auto_Polymerization/Data/UV_VIS_Spectra/MRG-061-F5_spectra_while_stopped_with_alu_foil/spectrum_2025-06-20_10-23-24_absorbance.txt
# Wavelength	Absorbance
197.78 -0.242052
198.392 2.682145
199.004 -0.092169
199.617 0.564518
200.229 -0.683474
200.842 2.902003
201.455 0.797646
202.067 0.243227
202.68 0.369487
203.294 0.256524
203.907 -0.678448
204.52 3.062958
205.134 0.074240
205.748 -0.300578
206.361 -3.061075
206.975 0.562072
207.589 0.000000
208.204 1.271475
208.818 -0.162467
209.433 2.907949
210.047 -0.193903
210.662 -0.105090
211.277 -0.373312
211.892 2.480007
212.507 3.209783
213.122 0.169931
213.738 -0.199549
214.353 -2.850033
214.969 -0.025160
215.585 0.358405
216.201 0.128573
216.817 -0.087902
217.433 -0.100931
218.049 0.000000
218.666 3.186674
219.282 2.960946
219.899 3.267641
220.516 -2.071882
221.133 -0.117529
221.75 3.183555
222.368 2.913284
222.985 -2.992554
223.603 -0.340671
224.22 0.319557
224.838 -0.102132
225.456 2.653213
226.074 2.632457
226.692 0.000000
227.311 0.043007
227.929 0.402820
228.548 -0.275050
229.167 -2.658011
229.786 -0.292886
230.405 1.963788
231.024 2.890421
231.643 2.718502
232.262 0.456649
232.882 2.599883
233.501 0.308717
234.121 0.000000
234.741 0.288045
235.361 1.390150
235.982 -0.457239
236.602 0.000000
237.222 -0.402779
237.843 1.851258
238.464 3.063333
239.084 -2.932474
239.706 2.643453
240.327 -1.090929
240.948 0.166865
241.569 2.632457
242.191 0.949147
242.812 -0.525898
243.434 2.913284
244.056 -1.079181
244.678 -0.031183
245.3 2.357935
245.923 0.954243
246.545 -0.219751
247.167 0.138733
247.79 1.845098
248.413 0.195132
249.036 0.154960
249.659 0.934889
250.282 0.731608
250.906 2.480007
251.529 -1.151868
252.153 3.289589
252.776 -0.804548
253.4 2.935003
254.024 0.991925
254.648 1.250863
255.273 0.234877
255.897 0.142577
256.521 -0.264649
257.146 -0.126162
257.771 -2.862728
258.396 0.302468
259.021 0.033571
259.646 3.198382
260.271 0.315825
260.897 0.050365
261.522 0.333143
262.148 2.989895
262.774 2.907411
263.399 0.178661
264.026 -0.427275
264.652 0.710215
265.278 -0.245442
265.904 0.218458
266.531 2.294466
267.158 -0.454656
267.784 -0.740474
268.411 0.716251
269.038 -0.445522
269.666 0.033198
270.293 0.000000
270.921 0.629664
271.548 0.234083
272.176 0.581253
272.804 3.021603
273.432 2.086063
274.06 -0.146058
274.688 -0.087822
275.316 0.377771
275.945 -0.213305
276.573 -0.507614
277.202 0.314881
277.831 0.525309
278.46 2.935507
279.089 2.691965
279.718 0.081878
280.348 -0.360096
280.977 0.156989
281.607 -3.308991
282.237 -0.047720
282.866 2.791691
283.497 0.221040
284.127 0.845098
284.757 0.082716
285.387 -3.120574
286.018 0.836364
286.648 0.090483
287.279 -0.409522
287.91 0.363498
288.541 3.352954
289.172 -1.518514
289.803 -2.457882
290.435 -2.257679
291.067 -0.007991
291.698 2.768638
292.33 0.405479
292.962 -2.887617
293.594 0.506206
294.226 -3.184975
294.858 0.378460
295.491 -2.850033
296.123 0.452543
296.756 1.702378
297.389 -0.101626
298.022 0.325745
298.654 0.289919
299.288 -3.099335
299.921 0.312831
300.554 2.769377
301.188 0.005152
301.822 0.454114
302.455 -0.121980
303.089 -0.504793
303.723 -0.103885
304.357 -0.488717
304.992 0.147128
305.626 -0.500718
306.261 0.302190
306.895 0.694374
307.53 -0.031484
308.165 0.000000
308.8 3.034227
309.435 2.450249
310.07 -0.127432
310.706 0.235729
311.341 0.227518
311.977 0.484691
312.613 0.554955
313.249 3.332034
313.885 0.123044
314.521 0.535454
315.157 2.283678
315.793 -0.415715
316.43 0.532621
317.067 0.805434
317.703 0.436986
318.34 0.175918
318.977 0.445039
319.614 0.787137
320.252 3.303412
320.889 -0.371574
321.526 0.515066
322.164 0.309106
322.802 0.081515
323.44 3.437433
324.078 1.014040
324.716 0.445878
325.354 0.463191
325.992 0.745336
326.631 3.581495
327.269 1.684579
327.908 0.455317
328.547 0.904295
329.186 0.688671
329.825 3.485153
330.464 2.139784
331.104 3.526469
331.743 0.410984
332.383 1.097631
333.022 3.595606
333.662 3.609381
334.302 0.930961
334.942 0.634402
335.582 0.571951
336.223 1.278847
336.863 0.943659
337.504 1.366746
338.144 0.817721
338.785 0.618629
339.426 0.779671
340.067 3.741388
340.708 3.745543
341.349 3.731266
341.991 3.831166
342.632 3.830460
343.274 1.753154
343.916 1.721140
344.558 0.713934
345.2 1.241198
345.842 1.033564
346.484 1.550311
347.126 0.995387
347.769 3.886321
348.411 1.457625
349.054 1.210918
349.697 1.098160
350.34 3.937869
350.983 0.709648
351.626 1.697239
352.27 1.501589
352.913 3.896857
353.557 0.840593
354.2 0.711314
354.844 0.880664
355.488 3.989138
356.132 0.754027
356.776 3.974327
357.421 0.752421
358.065 3.991935
358.709 1.162846
359.354 1.273035
359.999 1.133989
360.644 3.982497
361.289 4.042142
361.934 1.159290
362.579 4.062845
363.224 0.917597
363.87 4.028164
364.515 0.846613
365.161 4.048325
365.807 4.020403
366.453 1.230945
367.099 4.077622
367.745 0.735191
368.392 1.292290
369.038 1.015996
369.685 4.136974
370.331 4.097847
370.978 1.684744
371.625 0.851718
372.272 4.101128
372.919 0.906494
373.566 4.154637
374.214 1.075919
374.861 1.470961
375.509 2.693727
376.156 2.705941
376.804 1.847330
377.452 1.115697
378.1 4.253265
378.748 1.812805
379.397 1.265110
380.045 1.589403
380.694 1.158728
381.342 1.682469
381.991 1.916928
382.64 1.626386
383.289 4.351042
383.938 1.451854
384.587 1.633624
385.237 1.493604
385.886 1.473128
386.536 4.371972
387.186 1.474507
387.836 4.396356
388.485 1.914209
389.135 1.656121
389.786 2.063062
390.436 1.467828
391.086 1.162489
391.737 1.643142
392.387 1.113780
393.038 1.830314
393.689 1.164656
394.34 1.137252
394.991 1.089525
395.642 1.218249
396.294 1.013487
396.945 1.205756
397.597 1.098181
398.248 1.113031
398.9 1.028197
399.552 1.100203
400.204 0.972419
400.856 1.015579
401.509 0.850542
402.161 0.975999
402.813 0.848274
403.466 0.932225
404.119 0.745583
404.772 0.668999
405.425 0.789630
406.078 0.823653
406.731 0.734080
407.384 0.682900
408.038 0.737940
408.691 0.651471
409.345 0.684326
409.998 0.639194
410.652 0.662753
411.306 0.622236
411.961 0.711944
412.615 0.575588
413.269 0.594608
413.923 0.568041
414.578 0.572282
415.233 0.523608
415.887 0.622421
416.542 0.547645
417.197 0.505160
417.852 0.504791
418.508 0.517233
419.163 0.573339
419.818 0.550821
420.474 0.466162
421.13 0.537503
421.786 0.464206
422.442 0.536221
423.098 0.439001
423.754 0.531060
424.41 0.413308
425.066 0.489145
425.723 0.395870
426.379 0.428645
427.036 0.483435
427.693 0.464752
428.35 0.478902
429.007 0.419425
429.664 0.377294
430.321 0.450643
430.979 0.430766
431.636 0.435116
432.294 0.433123
432.952 0.423271
433.609 0.437926
434.267 0.449169
434.925 0.410516
435.584 0.415548
436.242 0.424457
436.9 0.476460
437.559 0.419012
438.217 0.413055
438.876 0.421163
439.535 0.435815
440.194 0.420146
440.853 0.420359
441.512 0.406385
442.171 0.421980
442.831 0.426209
443.49 0.365882
444.15 0.464456
444.81 0.469923
445.469 0.423062
446.129 0.473806
446.789 0.427449
447.45 0.428724
448.11 0.436452
448.77 0.454133
449.431 0.411562
450.091 0.487127
450.752 0.522738
451.413 0.501870
452.074 0.473665
452.735 0.477667
453.396 0.482239
454.057 0.490953
454.719 0.461294
455.38 0.488887
456.042 0.506119
456.704 0.517873
457.365 0.555591
458.027 0.525631
458.689 0.542914
459.352 0.563006
460.014 0.558892
460.676 0.544996
461.339 0.560606
462.001 0.628170
462.664 0.595572
463.327 0.601061
463.99 0.708660
464.653 0.674614
465.316 0.669694
465.979 0.695989
466.642 0.704189
467.306 0.677831
467.97 0.785684
468.633 0.708288
469.297 0.727143
469.961 0.853977
470.625 0.695883
471.289 0.772873
471.953 0.782455
472.618 0.797839
473.282 0.827922
473.947 0.807450
474.611 0.798955
475.276 0.805956
475.941 0.932313
476.606 0.818207
477.271 0.866960
477.936 0.947616
478.602 0.901849
479.267 0.834073
479.933 0.919605
480.598 1.027186
481.264 0.958324
481.93 0.955088
482.596 0.982040
483.262 0.945257
483.928 0.998808
484.594 0.961572
485.261 1.045169
485.927 1.074619
486.594 1.042788
487.26 1.120717
487.927 1.131129
488.594 1.084227
489.261 1.150838
489.928 1.080897
490.596 1.080889
491.263 1.172911
491.93 0.990063
492.598 1.090542
493.266 1.241466
493.933 1.297259
494.601 1.246305
495.269 1.162246
495.937 1.200386
496.606 1.153690
497.274 1.352913
497.942 1.355206
498.611 1.556608
499.279 1.068148
499.948 1.177345
500.617 1.345419
501.286 1.252053
501.955 1.027861
502.624 1.224531
503.293 1.314111
503.963 1.321687
504.632 1.276787
505.302 1.218552
505.972 1.443912
506.641 1.240847
507.311 1.434694
507.981 1.266041
508.651 1.548718
509.322 1.241397
509.992 1.206171
510.662 1.494425
511.333 1.098500
512.004 1.297189
512.674 1.344848
513.345 1.639766
514.016 1.186615
514.687 1.268725
515.358 1.295339
516.029 1.375669
516.701 1.404492
517.372 1.441281
518.044 1.240414
518.716 1.191047
519.387 1.110507
520.059 1.278024
520.731 1.233748
521.403 1.094854
522.076 1.279172
522.748 1.012411
523.42 1.119691
524.093 1.020856
524.765 1.113177
525.438 0.971991
526.111 1.225226
526.784 1.010350
527.457 1.279944
528.13 1.010270
528.803 0.963059
529.476 0.990119
530.15 0.994284
530.823 0.880089
531.497 0.941798
532.171 0.817900
532.845 0.976394
533.519 0.958653
534.193 0.839735
534.867 0.789411
535.541 0.877513
536.216 0.903681
536.89 0.742344
537.564 0.722563
538.239 0.781856
538.914 0.753891
539.589 0.742163
540.264 0.797229
540.939 0.699796
541.614 0.687881
542.289 0.713219
542.965 0.604673
543.64 0.653577
544.316 0.631729
544.991 0.575358
545.667 0.705659
546.343 0.651892
547.019 0.511586
547.695 0.557083
548.371 0.545600
549.048 0.578334
549.724 0.546357
550.401 0.490209
551.077 0.480091
551.754 0.505291
552.431 0.453452
553.108 0.450342
553.785 0.464368
554.462 0.477626
555.139 0.395833
555.816 0.410396
556.494 0.407697
557.171 0.370709
557.849 0.373344
558.527 0.364095
559.204 0.380365
559.882 0.369963
560.56 0.332851
561.238 0.308319
561.917 0.340297
562.595 0.324622
563.273 0.331329
563.952 0.295207
564.63 0.326368
565.309 0.283151
565.988 0.276639
566.667 0.284224
567.346 0.259888
568.025 0.261304
568.704 0.258971
569.384 0.243554
570.063 0.249383
570.742 0.241876
571.422 0.245009
572.102 0.239182
572.782 0.238212
573.462 0.224600
574.141 0.223091
574.822 0.215875
575.502 0.206562
576.182 0.225246
576.863 0.200116
577.543 0.199617
578.224 0.205832
578.904 0.190864
579.585 0.188745
580.266 0.196624
580.947 0.189635
581.628 0.172976
582.309 0.171874
582.991 0.160642
583.672 0.167770
584.354 0.161981
585.035 0.171909
585.717 0.164224
586.399 0.156605
587.08 0.155876
587.762 0.147180
588.444 0.156867
589.127 0.137181
589.809 0.158858
590.491 0.129182
591.174 0.140994
591.856 0.148138
592.539 0.136763
593.222 0.142446
593.905 0.135498
594.587 0.134346
595.27 0.137945
595.954 0.146410
596.637 0.149348
597.32 0.134384
598.004 0.125436
598.687 0.140903
599.371 0.136337
600.055 0.134883
600.738 0.123973
601.422 0.122728
602.106 0.125685
602.79 0.122927
603.475 0.121991
604.159 0.132280
604.843 0.126689
605.528 0.117521
606.212 0.109537
606.897 0.111787
607.582 0.109193
608.267 0.116734
608.952 0.118882
609.637 0.124506
610.322 0.100066
611.007 0.105670
611.693 0.116253
612.378 0.121442
613.064 0.118468
613.749 0.109197
614.435 0.108035
615.121 0.109698
615.807 0.098092
616.493 0.111741
617.179 0.101377
617.865 0.103753
618.552 0.088679
619.238 0.111841
619.924 0.103716
620.611 0.110217
621.298 0.123713
621.985 0.101808
622.671 0.111494
623.358 0.104365
624.045 0.118380
624.733 0.080088
625.42 0.107988
626.107 0.096144
626.795 0.105731
627.482 0.104896
628.17 0.086807
628.858 0.075100
629.545 0.104971
630.233 0.099322
630.921 0.104499
631.609 0.117699
632.298 0.085559
632.986 0.078700
633.674 0.115371
634.363 0.101074
635.051 0.103987
635.74 0.103303
636.429 0.087865
637.118 0.093930
637.807 0.104140
638.496 0.116109
639.185 0.088935
639.874 0.072887
640.563 0.055674
641.253 0.090162
641.942 0.077145
642.632 0.061259
643.322 0.132457
644.011 0.089519
644.701 0.095440
645.391 0.080894
646.081 0.062363
646.771 0.077898
647.462 0.091482
648.152 0.096598
648.842 0.073035
649.533 0.093852
650.224 0.086968
650.914 0.055585
651.605 0.096988
652.296 0.106099
652.987 0.105678
653.678 0.080611
654.369 0.091637
655.061 0.129777
655.752 0.113277
656.443 0.001458
657.135 0.104278
657.826 0.112472
658.518 0.115565
659.21 0.137859
659.902 0.170559
660.594 0.145261
661.286 0.091742
661.978 0.070793
662.67 0.105908
663.363 0.065009
664.055 0.096061
664.748 0.129169
665.44 0.096893
666.133 0.125384
666.826 0.113805
667.519 0.076580
668.212 0.132422
668.905 0.138735
669.598 0.103103
670.291 0.103246
670.985 0.087008
671.678 0.091359
672.372 0.111739
673.065 0.064990
673.759 0.094287
674.453 0.071110
675.147 0.110267
675.841 0.104208
676.535 0.085671
677.229 0.057612
677.923 0.066533
678.617 0.101387
679.312 0.089720
680.006 0.107111
680.701 0.091790
681.396 0.097942
682.091 0.068519
682.785 0.092070
683.48 0.062618
684.175 0.107972
684.87 0.090357
685.566 0.074782
686.261 0.117487
686.957 0.051376
687.652 0.089182
688.348 0.092042
689.043 0.107897
689.739 0.102802
690.435 0.090583
691.131 0.092847
691.827 0.067346
692.523 0.142498
693.219 0.061131
693.915 0.122113
694.612 0.084444
695.308 0.096910
696.005 0.117079
696.702 0.098797
697.398 0.120157
698.095 0.119050
698.792 0.068949
699.489 0.089130
700.186 0.074572
700.883 0.072813
701.581 0.114262
702.278 0.112944
702.975 0.084713
703.673 0.108585
704.37 0.118610
705.068 0.060037
705.766 0.109101
706.464 0.144738
707.162 0.074538
707.86 0.106818
708.558 0.106681
709.256 0.051455
709.955 0.095497
710.653 0.047760
711.351 0.071571
712.05 0.100939
712.749 0.066879
713.447 0.068549
714.146 0.079156
714.845 0.093162
715.544 0.074332
716.243 0.052746
716.942 0.083751
717.642 0.073052
718.341 0.110103
719.04 0.102049
719.74 0.075013
720.439 0.052381
721.139 0.076426
721.839 0.145621
722.539 0.129498
723.239 0.081642
723.939 0.072110
724.639 0.118562
725.339 0.078305
726.039 0.089536
726.74 0.096904
727.44 0.063173
728.141 0.089494
728.841 0.075580
729.542 0.074541
730.243 0.057744
730.944 0.096052
731.645 0.092117
732.346 0.079534
733.047 0.077726
733.748 0.088533
734.449 0.094890
735.151 0.084109
735.852 0.117498
736.554 0.101809
737.256 0.097065
737.957 0.107503
738.659 0.107739
739.361 0.054340
740.063 0.100129
740.765 0.068660
741.467 0.069392
742.169 0.091753
742.872 0.070302
743.574 0.072695
744.277 0.113911
744.979 0.100606
745.682 0.078363
746.385 0.089564
747.087 0.081761
747.79 0.064894
748.493 0.071008
749.196 0.105864
749.899 0.077267
750.603 0.120515
751.306 0.089880
752.01 0.078086
752.713 0.088641
753.417 0.076956
754.12 0.106840
754.824 0.085433
755.528 0.095963
756.232 0.096432
756.936 0.084198
757.64 0.091113
758.344 0.081651
759.048 0.095027
759.752 0.091698
760.457 0.078564
761.161 0.114867
761.866 0.119369
762.571 0.088287
763.275 0.075601
763.98 0.107360
764.685 0.109908
765.39 0.083062
766.095 0.106662
766.8 0.085302
767.505 0.093956
768.211 0.083086
768.916 0.110678
769.621 0.079904
770.327 0.070463
771.033 0.079477
771.738 0.109187
772.444 0.112668
773.15 0.069229
773.856 0.102866
774.562 0.068700
775.268 0.051417
775.974 0.091517
776.68 0.099072
777.387 0.093865
778.093 0.083915
778.8 0.060291
779.506 0.072713
780.213 0.103038
780.92 0.082801
781.626 0.080025
782.333 0.077210
783.04 0.098758
783.747 0.078838
784.455 0.084898
785.162 0.082557
785.869 0.058756
786.577 0.080742
787.284 0.090012
787.992 0.073145
788.699 0.092903
789.407 0.109875
790.115 0.058672
790.823 0.087778
791.531 0.074743
792.239 0.091420
792.947 0.068172
793.655 0.078035
794.363 0.085549
795.072 0.129915
795.78 0.105600
796.489 0.101333
797.197 0.039418
797.906 0.079234
798.615 0.083839
799.323 0.074089
800.032 0.134070
800.741 0.110631
801.45 0.062747
802.159 0.094506
802.869 0.057214
803.578 0.126799
804.287 0.076246
804.997 0.065403
805.706 0.080516
806.416 0.110627
807.126 0.122350
807.835 0.039074
808.545 0.053230
809.255 0.029682
809.965 0.082006
810.675 0.079177
811.385 0.104646
812.096 0.046644
812.806 0.055056
813.516 0.004153
814.227 0.114282
814.937 0.136734
815.648 0.045768
816.359 0.057728
817.069 0.067818
817.78 0.033991
818.491 0.068702
819.202 0.024074
819.913 0.061013
820.624 0.122969
821.336 0.157046
822.047 0.095940
822.758 0.162591
823.47 0.188620
824.181 0.104154
824.893 0.050530
825.605 0.100682
826.317 0.149642
827.028 0.205788
827.74 0.147812
828.452 0.074495
829.164 0.023279
829.876 0.076670
830.589 0.120477
831.301 0.138393
832.013 0.140262
832.726 0.083183
833.438 0.068118
834.151 0.116359
834.864 0.048135
835.577 0.116203
836.289 0.190652
837.002 0.112307
837.715 0.067156
838.428 0.078801
839.141 0.149790
839.855 0.083216
840.568 0.097699
841.281 0.134051
841.995 -0.006386
842.708 0.234531
843.422 -0.027592
844.135 0.012967
844.849 0.168691
845.563 0.041400
846.277 0.108756
846.991 0.077487
847.705 0.083688
848.419 0.187734
849.133 0.162228
849.847 0.194650
850.562 -0.017128
851.276 0.238178
851.991 0.037275
852.705 0.077848
853.42 0.055678
854.135 0.068276
854.85 0.120498
855.564 0.079905
856.279 0.130309
856.994 0.024890
857.709 0.042869
858.424 0.029729
859.14 0.152433
859.855 0.035866
860.57 0.105517
861.286 0.043082
862.001 0.119731
862.717 -0.001809
863.433 0.091295
864.148 0.112812
864.864 0.130699
865.58 0.016663
866.296 0.188520
867.012 0.136699
867.728 -0.063584
868.444 0.129371
869.161 -0.016529
869.877 -0.017996
870.593 0.097660
871.31 0.066994
872.026 0.005634
872.743 0.042347
873.46 0.191543
874.176 -0.029176
874.893 -0.020054
875.61 0.068872
876.327 0.040998
877.044 0.043094
877.761 0.051807
878.478 0.135679
879.196 0.161262
879.913 0.095335
880.63 0.148188
881.348 0.079391
882.065 0.250179
882.783 0.297536
883.501 0.060503
884.218 0.025374
884.936 0.095287
885.654 0.057271
886.372 0.065354
887.09 0.166163
887.808 0.074227
888.527 0.082148
889.245 0.002027
889.963 0.026373
890.682 0.098558
891.4 0.310477
892.119 0.009713
892.837 0.236025
893.556 0.225014
894.275 0.100139
894.994 0.037251
895.712 0.073968
896.431 0.166860
897.15 0.277827
897.87 0.107585
898.589 0.037727
899.308 0.104690
900.027 -0.133586
900.747 0.129318
901.466 0.073262
902.186 0.183255
902.905 0.119472
903.625 0.118065
904.345 0.059218
905.064 0.113254
905.784 0.181005
906.504 0.092073
907.224 0.248533
907.944 0.147382
908.664 0.285794
909.385 0.063356
910.105 0.090522
910.825 0.066666
911.546 0.071236
912.266 0.205432
912.987 -0.008870
913.707 0.127141
914.428 0.243407
915.149 0.119828
915.87 0.113522
916.591 0.079614
917.312 -0.016674
918.033 0.242243
918.754 0.253489
919.475 0.118343
920.196 -0.014942
920.918 0.076571
921.639 0.386746
922.361 0.111839
923.082 -0.130918
923.804 0.215465
924.525 0.264957
925.247 0.096647
925.969 -0.047766
926.691 0.212403
927.413 0.040735
928.135 0.141012
928.857 0.395511
929.579 0.180193
930.301 0.191602
931.023 0.098232
931.746 0.368031
932.468 0.202991
933.191 0.025836
933.913 0.102361
934.636 -0.039824
935.358 0.144595
936.081 -0.023776
936.804 -0.030904
937.527 0.015023
938.25 0.291879
938.973 0.453165
939.696 1.063811
940.419 0.169584
941.142 0.063781
941.865 0.534293
942.589 -0.212976
943.312 0.184907
944.036 0.017456
944.759 0.031805
945.483 0.319493
946.207 -0.083498
946.93 -0.718020
947.654 0.148671
948.378 -0.142385
949.102 -0.069810
949.826 0.229188
950.55 -0.271485
951.274 0.058985
951.998 0.036846
952.723 -0.359366
953.447 -0.045128
954.171 1.770852
954.896 -0.100772
955.62 -0.412465
956.345 0.172757
957.07 -0.032264
957.794 3.097604
958.519 0.448200
959.244 -0.332316
959.969 0.169592
960.694 0.069045
961.419 -0.222427
962.144 0.530006
962.869 -0.542169
963.594 1.072358
964.32 0.430650
965.045 -0.320506
965.77 0.059867
966.496 -0.449908
967.222 0.084822
967.947 -0.411638
968.673 0.047911
969.399 -0.438731
970.125 0.842794
970.85 -0.358810
971.576 2.598791
972.302 0.311765
973.028 1.134944
973.755 0.330393
974.481 -0.300421
975.207 -0.211138
975.933 2.853698
976.66 3.082785
977.386 2.745075
978.113 -0.073332
978.839 3.206826
979.566 -0.704214
980.293 1.490086
981.019 2.752816
981.746 -1.147455
982.473 3.192567
983.2 2.990339
983.927 -0.477494
984.654 -0.324154
985.381 3.229170
986.109 0.000000
986.836 -0.076882
987.563 0.819890
988.291 0.302541
989.018 -0.092895
989.746 2.123852
990.473 0.391439
991.201 -0.104958
991.928 -2.953276
992.656 -0.089727
993.384 0.029049
994.112 -0.238752
994.84 -2.823474
995.568 0.089611
996.296 -0.271966
997.024 -0.760342
997.752 0.091031
998.481 0.212814
999.209 -2.204120
999.937 2.318063
1000.67 2.907949
1001.39 0.151789
1002.12 2.840106
1002.85 1.834103
1003.58 -2.488551
1004.31 0.515211
1005.04 0.396974
1005.77 2.783904
1006.5 2.812913
1007.22 0.449093
1007.95 3.146128
1008.68 2.691965
1009.41 -3.166726
1010.14 -0.595195
1010.87 -0.048539
1011.6 -1.633986
1012.33 -0.177165
1013.06 -3.028164
1013.79 -0.012347
1014.52 3.161967
1015.25 0.225349
1015.98 -0.093819
1016.71 -0.633143
1017.44 2.562293
1018.17 0.029236
1018.9 0.122330
1019.63 -0.102227
1020.36 -0.609787
1021.09 0.571962
1021.82 0.000000
1022.55 -0.258466
1023.03 0.097746