File: Auto_Polymerization/Data/UV_VIS_Spectra/MRG-061-F5_spectra_while_stopped_with_alu_foil/spectrum_2025-06-20_10-23-24.txt
# Wavelength (nm)	Intensity (a.u.)
197.7802	0.001320
198.3922	-0.000810
199.0044	0.001025
199.6168	0.000160
200.2292	0.001404
200.8418	-0.000199
201.4546	0.000265
202.0674	0.000329
202.6805	0.000287
203.2936	0.000308
203.9069	0.000434
204.5203	-0.000663
205.1338	0.001046
205.7475	0.000961
206.3614	0.001151
206.9753	0.000054
207.5894	-0.000705
208.2036	0.000076
208.8180	0.000455
209.4325	-0.000114
210.0471	0.000983
210.6618	0.001447
211.2767	0.001911
211.8918	-0.001042
212.5069	-0.000072
213.1222	0.000497
213.7376	0.001531
214.3532	0.000708
214.9689	0.000835
215.5847	0.000308
216.2007	0.000476
216.8168	0.000835
217.4330	0.000434
218.0494	-0.000515
218.6659	-0.000642
219.2825	-0.000093
219.8992	-0.000325
220.5161	0.000118
221.1332	0.001046
221.7503	-0.000916
222.3676	-0.000199
222.9850	0.000983
223.6026	0.000940
224.2203	0.000413
224.8381	0.000983
225.4561	-0.000536
226.0742	-0.000937
226.6924	-0.000009
227.3107	0.001172
227.9292	0.000708
228.5478	0.002417
229.1666	0.000455
229.7855	0.001215
230.4045	-0.000030
231.0236	-0.000072
231.6429	-0.000093
232.2623	0.000666
232.8818	-0.000114
233.5015	0.000392
234.1213	-0.000684
234.7413	0.000645
235.3613	0.000054
235.9815	0.001046
236.6018	-0.000789
237.2223	0.001805
237.8429	-0.000388
238.4636	-0.000388
239.0845	0.000856
239.7055	-0.000642
240.3266	0.001911
240.9478	0.000666
241.5692	-0.000557
242.1907	0.000181
242.8124	0.001299
243.4341	-0.000114
244.0560	0.000012
244.6781	0.001299
245.3002	-0.000304
245.9225	0.000118
246.5449	0.000413
247.1675	0.001193
247.7902	-0.000262
248.4130	0.000476
249.0359	0.000751
249.6590	0.000181
250.2822	0.000287
250.9056	-0.001042
251.5290	0.001447
252.1526	-0.000156
252.7763	0.001594
253.4002	-0.000599
254.0242	0.000076
254.6483	0.000033
255.2725	0.000729
255.8969	0.000772
256.5214	0.001236
257.1460	0.001067
257.7708	0.000729
258.3957	0.000603
259.0207	0.000983
259.6459	-0.000030
260.2711	0.000202
260.8965	0.001594
261.5221	0.000645
262.1477	-0.000009
262.7735	-0.000262
263.3995	0.001067
264.0255	0.000666
264.6517	0.000244
265.2780	0.001721
265.9044	0.000540
266.5310	-0.000072
267.1577	0.002185
267.7845	0.001953
268.4114	0.000202
269.0385	0.000371
269.6657	0.000856
270.2931	-0.000030
270.9205	0.000160
271.5481	0.000287
272.1758	0.000497
272.8037	-0.000346
273.4316	0.000012
274.0597	0.001236
274.6880	0.001868
275.3163	0.000476
275.9448	0.001510
276.5734	0.002227
277.2022	0.000540
277.8310	0.000392
278.4600	-0.000705
279.0891	-0.000178
279.7184	0.001552
280.3477	0.000983
280.9772	0.000519
281.6069	0.002037
282.2366	0.000961
282.8665	-0.000114
283.4965	0.000645
284.1266	-0.000410
284.7569	0.000877
285.3873	0.001320
286.0178	0.000287
286.6484	0.000708
287.2792	0.001805
287.9101	0.000181
288.5411	-0.000051
289.1723	0.000033
289.8035	0.000287
290.4349	0.000181
291.0665	0.001426
291.6981	-0.000072
292.3299	0.000434
292.9618	0.000772
293.5938	0.000308
294.2260	0.001531
294.8582	0.000497
295.4906	0.000708
296.1232	0.000624
296.7558	0.000033
297.3886	0.001088
298.0215	0.000666
298.6545	0.000772
299.2877	0.001257
299.9210	0.000835
300.5544	-0.000156
301.1879	0.001257
301.8215	0.000814
302.4553	0.001658
303.0892	0.000729
303.7233	0.001067
304.3574	0.000835
304.9917	0.000434
305.6261	0.000624
306.2606	0.000561
306.8953	0.000076
307.5301	0.001573
308.1650	-0.000642
308.8000	-0.000684
309.4351	-0.000178
310.0704	0.001805
310.7058	0.000856
311.3413	0.001172
311.9770	0.000455
312.6127	0.000287
313.2486	-0.000030
313.8846	0.000919
314.5208	0.000371
315.1570	0.000012
315.7934	0.001172
316.4299	0.000983
317.0666	0.000455
317.7033	0.000793
318.3402	0.000835
318.9772	0.000983
319.6143	0.000287
320.2516	-0.000030
320.8890	0.000687
321.5265	0.001004
322.1641	0.000666
322.8018	0.001763
323.4397	-0.000030
324.0777	0.000350
324.7158	0.000898
325.3540	0.001320
325.9924	0.000371
326.6308	-0.000072
327.2694	0.000054
327.9082	0.001130
328.5470	0.000540
329.1860	0.000751
329.8251	-0.001000
330.4643	0.000033
331.1036	-0.000705
331.7431	0.001489
332.3826	0.000265
333.0223	-0.000367
333.6622	-0.000114
334.3021	0.000645
334.9422	0.000983
335.5823	0.001172
336.2227	0.000244
336.8631	0.000540
337.5036	0.000202
338.1443	0.000919
338.7851	0.001215
339.4260	0.000856
340.0670	-0.000325
340.7082	-0.000030
341.3495	-0.000388
341.9909	-0.000199
342.6324	-0.001612
343.2740	0.000118
343.9158	0.000118
344.5577	0.001489
345.1997	0.000392
345.8418	0.000687
346.4840	0.000223
347.1264	0.000814
347.7689	-0.000810
348.4115	0.000265
349.0542	0.000519
349.6971	0.000666
350.3400	-0.000515
350.9831	0.001615
351.6263	0.000181
352.2696	0.000287
352.9131	-0.000494
353.5566	0.001426
354.2003	0.001658
354.8441	0.001299
355.4881	-0.000135
356.1321	0.001826
356.7763	-0.000135
357.4206	0.001721
358.0650	-0.000410
358.7095	0.000708
359.3541	0.000519
359.9989	0.000666
360.6438	-0.000093
361.2888	-0.000241
361.9339	0.000708
362.5791	-0.000726
363.2245	0.001299
363.8699	-0.000009
364.5155	0.001594
365.1612	-0.000620
365.8071	-0.000114
366.4530	0.000772
367.0991	-0.000262
367.7453	0.002396
368.3916	0.000645
369.0380	0.001362
369.6845	-0.001063
370.3312	-0.000410
370.9780	0.000265
371.6249	0.002037
372.2719	-0.001422
372.9190	0.001636
373.5663	-0.000578
374.2136	0.001236
374.8611	0.000497
375.5087	0.000033
376.1564	0.000033
376.8043	0.000244
377.4522	0.001426
378.1003	-0.000009
378.7485	0.000308
379.3968	0.001130
380.0452	0.000497
380.6938	0.001320
381.3424	0.000434
381.9912	0.000244
382.6401	0.000519
383.2891	-0.000410
383.9382	0.000772
384.5875	0.000519
385.2368	0.000729
385.8863	0.000772
386.5359	-0.001148
387.1856	0.000772
387.8355	-0.000578
388.4854	0.000308
389.1355	0.000582
389.7856	0.000223
390.4359	0.000877
391.0863	0.001868
391.7369	0.000603
392.3875	0.002248
393.0383	0.000455
393.6891	0.002037
394.3401	0.002122
394.9912	0.002396
395.6425	0.001805
396.2938	0.002923
396.9453	0.002037
397.5968	0.002607
398.2485	0.002712
398.9003	0.003387
399.5522	0.002754
400.2043	0.003577
400.8564	0.003261
401.5087	0.004779
402.1610	0.003493
402.8135	0.004632
403.4661	0.003893
404.1189	0.006150
404.7717	0.007564
405.4246	0.005918
406.0777	0.005518
406.7309	0.006171
407.3842	0.006783
408.0376	0.006340
408.6911	0.007859
409.3448	0.007184
409.9985	0.008133
410.6524	0.007479
411.3064	0.008238
411.9605	0.006635
412.6147	0.009525
413.2690	0.009082
413.9234	0.010137
414.5780	0.009420
415.2326	0.010474
415.8874	0.008745
416.5423	0.010158
417.1973	0.010981
417.8524	0.011360
418.5077	0.011065
419.1630	0.009673
419.8185	0.010538
420.4741	0.013765
421.1298	0.012246
421.7856	0.015642
422.4415	0.013132
423.0975	0.015621
423.7536	0.012457
424.4099	0.015958
425.0663	0.013596
425.7228	0.015980
426.3793	0.013934
427.0361	0.012837
427.6929	0.014566
428.3498	0.013469
429.0068	0.015305
429.6640	0.018532
430.3213	0.017076
430.9787	0.017477
431.6362	0.015157
432.2938	0.014503
432.9515	0.015178
433.6093	0.016760
434.2673	0.016887
434.9253	0.016950
435.5835	0.016212
436.2418	0.016296
436.9001	0.015115
437.5586	0.016401
438.2173	0.016823
438.8760	0.016844
439.5348	0.016169
440.1938	0.017308
440.8528	0.017540
441.5120	0.021991
442.1713	0.020620
442.8307	0.019207
443.4902	0.022328
444.1498	0.018869
444.8095	0.018068
445.4694	0.020557
446.1293	0.017794
446.7894	0.020177
447.4496	0.019481
448.1098	0.018342
448.7702	0.017625
449.4307	0.020029
450.0914	0.016676
450.7521	0.015452
451.4129	0.015558
452.0739	0.016570
452.7349	0.015642
453.3961	0.015579
454.0574	0.014946
454.7188	0.015452
455.3803	0.015452
456.0419	0.014946
456.7036	0.013638
457.3654	0.013469
458.0274	0.015305
458.6894	0.014693
459.3516	0.013596
460.0138	0.014334
460.6762	0.013955
461.3387	0.013912
462.0013	0.011297
462.6640	0.011634
463.3268	0.012183
463.9897	0.010052
464.6528	0.011445
465.3159	0.011993
465.9792	0.011930
466.6425	0.010306
467.3060	0.010158
467.9696	0.007964
468.6333	0.009462
469.2970	0.008281
469.9610	0.005602
470.6250	0.008302
471.2891	0.007078
471.9533	0.006678
472.6177	0.007015
473.2821	0.007099
473.9467	0.007458
474.6113	0.007374
475.2761	0.007774
475.9410	0.005560
476.6060	0.007226
477.2711	0.006129
477.9363	0.005665
478.6016	0.006087
479.2670	0.007078
479.9325	0.005918
480.5982	0.005096
481.2639	0.005707
481.9298	0.005876
482.5957	0.005285
483.2618	0.005855
483.9280	0.005180
484.5943	0.006319
485.2606	0.005454
485.9271	0.015853
486.5937	0.012120
487.2605	0.007585
487.9273	0.004505
488.5942	0.004421
489.2612	0.003767
489.9284	0.004421
490.5956	0.004231
491.2630	0.003472
491.9304	0.005349
492.5980	0.004210
493.2657	0.002965
493.9334	0.002649
494.6013	0.003050
495.2693	0.003493
495.9374	0.003176
496.6056	0.004083
497.2739	0.002417
497.9423	0.002185
498.6109	0.001383
499.2795	0.004568
499.9482	0.003619
500.6171	0.002311
501.2860	0.003092
501.9551	0.005011
502.6242	0.003303
503.2935	0.002649
503.9628	0.002565
504.6323	0.002691
505.3019	0.003176
505.9716	0.001784
506.6414	0.003071
507.3113	0.001742
507.9813	0.002691
508.6514	0.001383
509.3216	0.002712
509.9919	0.003050
510.6623	0.001531
511.3329	0.003893
512.0035	0.002459
512.6742	0.002037
513.3451	0.001046
514.0160	0.002881
514.6871	0.002354
515.3582	0.002143
516.0295	0.001826
516.7008	0.001742
517.3723	0.001573
518.0439	0.002438
518.7155	0.002565
519.3873	0.003387
520.0592	0.002164
520.7312	0.002206
521.4033	0.003134
522.0755	0.001911
522.7478	0.003577
523.4202	0.002754
524.0927	0.003661
524.7653	0.002881
525.4380	0.004062
526.1108	0.002185
526.7837	0.003661
527.4568	0.001995
528.1299	0.003640
528.8031	0.004421
529.4765	0.004210
530.1499	0.003893
530.8234	0.005307
531.4971	0.004252
532.1708	0.005728
532.8447	0.004168
533.5186	0.004800
534.1927	0.006425
534.8668	0.007437
535.5411	0.005982
536.2155	0.005328
536.8899	0.007078
537.5645	0.008175
538.2392	0.007353
538.9139	0.008028
539.5888	0.008492
540.2638	0.007163
540.9389	0.008935
541.6140	0.009441
542.2893	0.009504
542.9647	0.011972
543.6402	0.010854
544.3158	0.011909
544.9915	0.013638
545.6673	0.009947
546.3432	0.010727
547.0192	0.014376
547.6953	0.014271
548.3715	0.016254
549.0478	0.014102
549.7242	0.014166
550.4007	0.014883
551.0773	0.015157
551.7540	0.014609
552.4308	0.019186
553.1077	0.018490
553.7847	0.018384
554.4618	0.016908
555.1390	0.019797
555.8163	0.020325
556.4937	0.021611
557.1712	0.021232
557.8488	0.021358
558.5266	0.020536
559.2044	0.019122
559.8823	0.020135
560.5603	0.025999
561.2384	0.029247
561.9166	0.026863
562.5949	0.026906
563.2733	0.026779
563.9519	0.028909
564.6305	0.029395
565.3092	0.032580
565.9880	0.032537
566.6669	0.032812
567.3459	0.041185
568.0250	0.043906
568.7043	0.050551
569.3836	0.061709
570.0630	0.078414
570.7425	0.082591
571.4221	0.096385
572.1018	0.107459
572.7816	0.093938
573.4615	0.109273
574.1415	0.124565
574.8216	0.134711
575.5018	0.140849
576.1821	0.122203
576.8626	0.144013
577.5431	0.154496
578.2237	0.186662
578.9044	0.158567
579.5851	0.157491
580.2660	0.158335
580.9470	0.156943
581.6281	0.253358
582.3093	0.241229
582.9906	0.190016
583.6720	0.153357
584.3535	0.154369
585.0351	0.175800
585.7167	0.183520
586.3985	0.160381
587.0804	0.167088
587.7624	0.179449
588.4445	0.157660
589.1266	0.141714
589.8089	0.125662
590.4913	0.122203
591.1737	0.105286
591.8563	0.102840
592.5389	0.122013
593.2217	0.161646
593.9046	0.154517
594.5875	0.135048
595.2705	0.156689
595.9537	0.134774
596.6369	0.112500
597.3203	0.119292
598.0037	0.117288
598.6872	0.123173
599.3709	0.146143
600.0546	0.143865
600.7384	0.143886
601.4223	0.145173
602.1064	0.134247
602.7905	0.137748
603.4747	0.150805
604.1590	0.138065
604.8434	0.123300
605.5279	0.130534
606.2125	0.138275
606.8972	0.123405
607.5819	0.130239
608.2668	0.117815
608.9518	0.112838
609.6369	0.102312
610.3220	0.125156
611.0073	0.112437
611.6927	0.109399
612.3781	0.102439
613.0637	0.102460
613.7493	0.102291
614.4351	0.103536
615.1209	0.099929
615.8068	0.108450
616.4929	0.091492
617.1790	0.088307
617.8652	0.089720
618.5515	0.083498
619.2379	0.073120
619.9244	0.075946
620.6110	0.074744
621.2977	0.057638
621.9845	0.065759
622.6714	0.068079
623.3584	0.072614
624.0454	0.068100
624.7326	0.075271
625.4199	0.064978
626.1072	0.062067
626.7947	0.056710
627.4822	0.056984
628.1698	0.053250
628.8576	0.049053
629.5454	0.049686
630.2333	0.049665
630.9213	0.045362
631.6094	0.041164
632.2976	0.042810
632.9859	0.038380
633.6743	0.035385
634.3628	0.034689
635.0514	0.033951
635.7400	0.033381
636.4288	0.038000
637.1177	0.036123
637.8066	0.033740
638.4957	0.033824
639.1848	0.033086
639.8740	0.032386
640.5633	0.031629
641.2528	0.028744
641.9423	0.026977
642.6319	0.025276
643.3216	0.022321
644.0113	0.024014
644.7012	0.021312
645.3912	0.023107
646.0812	0.022193
646.7714	0.020442
647.4616	0.020838
648.1520	0.023950
648.8424	0.028170
649.5329	0.027961
650.2236	0.025831
650.9143	0.025172
651.6051	0.023507
652.2960	0.024262
652.9870	0.025075
653.6780	0.027094
654.3692	0.029087
655.0605	0.049766
655.7518	0.783707
656.4433	1.000000
657.1348	0.715028
657.8264	0.426414
658.5181	0.319351
659.2099	0.238664
659.9018	0.059672
660.5938	0.022638
661.2859	0.020390
661.9781	0.019221
662.6704	0.018619
663.3627	0.018579
664.0552	0.017620
664.7477	0.017674
665.4403	0.020788
666.1330	0.018267
666.8259	0.016633
667.5188	0.018451
668.2117	0.015161
668.9048	0.015684
669.5980	0.016085
670.2913	0.018616
670.9846	0.018384
671.6781	0.024269
672.3716	0.026631
673.0652	0.028150
673.7589	0.023784
674.4527	0.024058
675.1466	0.021042
675.8406	0.021421
676.5347	0.019861
677.2288	0.020725
677.9231	0.025218
678.6174	0.023932
679.3119	0.027201
680.0064	0.029141
680.7010	0.028804
681.3957	0.028762
682.0905	0.028994
682.7854	0.024417
683.4803	0.026906
684.1754	0.026863
684.8705	0.032411
685.5658	0.039456
686.2611	0.035680
686.9565	0.037705
687.6520	0.035617
688.3476	0.032474
689.0433	0.029352
689.7390	0.028741
690.4349	0.027686
691.1308	0.031272
691.8269	0.032938
692.5230	0.028593
693.2192	0.034668
693.9155	0.028024
694.6119	0.027559
695.3083	0.029732
696.0049	0.024058
696.7016	0.029310
697.3983	0.031462
698.0951	0.031166
698.7920	0.031251
699.4890	0.028783
700.1861	0.027011
700.8833	0.026505
701.5806	0.022771
702.2779	0.023467
702.9753	0.024965
703.6729	0.023974
704.3705	0.021653
705.0682	0.020472
705.7660	0.018933
706.4638	0.022982
707.1618	0.029732
707.8599	0.031462
708.5580	0.029500
709.2562	0.029837
709.9545	0.027222
710.6529	0.030470
711.3514	0.025598
712.0500	0.023088
712.7486	0.025450
713.4474	0.026442
714.1462	0.028635
714.8451	0.028024
715.5441	0.029479
716.2432	0.025872
716.9424	0.023889
717.6416	0.022666
718.3410	0.023531
719.0404	0.024079
719.7399	0.024881
720.4395	0.025408
721.1392	0.025092
721.8390	0.022286
722.5388	0.021485
723.2388	0.023088
723.9388	0.023868
724.6389	0.022434
725.3391	0.027538
726.0394	0.027538
726.7398	0.027370
727.4403	0.029015
728.1408	0.027876
728.8414	0.028234
729.5421	0.031082
730.2429	0.031799
730.9438	0.035870
731.6448	0.036461
732.3458	0.034626
733.0470	0.036967
733.7482	0.038148
734.4495	0.043358
735.1509	0.039477
735.8524	0.038190
736.5539	0.039878
737.2556	0.039793
737.9573	0.033233
738.6591	0.031947
739.3610	0.041692
740.0630	0.034119
740.7651	0.033676
741.4672	0.030787
742.1695	0.027159
742.8718	0.028973
743.5742	0.026442
744.2767	0.022814
744.9792	0.024712
745.6819	0.023025
746.3846	0.024206
747.0874	0.024480
747.7903	0.027475
748.4933	0.024923
749.1964	0.024290
749.8995	0.030808
750.6028	0.031061
751.3061	0.032010
752.0095	0.033887
752.7130	0.031061
753.4166	0.031377
754.1202	0.033803
754.8239	0.033128
755.5278	0.034330
756.2317	0.037241
756.9356	0.042493
757.6397	0.049116
758.3438	0.048336
759.0481	0.044159
759.7524	0.049981
760.4568	0.053672
761.1613	0.048420
761.8658	0.043105
762.5705	0.039667
763.2752	0.042367
763.9800	0.040953
764.6849	0.045594
765.3898	0.048441
766.0949	0.039287
766.8000	0.033571
767.5052	0.031040
768.2105	0.036165
768.9159	0.039857
769.6214	0.038317
770.3269	0.037536
771.0325	0.039857
771.7382	0.037115
772.4440	0.032790
773.1499	0.033128
773.8558	0.030618
774.5618	0.028783
775.2679	0.025914
775.9741	0.022560
776.6804	0.021843
777.3868	0.019924
778.0932	0.021168
778.7997	0.024986
779.5063	0.027011
780.2130	0.023151
780.9197	0.026547
781.6265	0.029753
782.3335	0.029373
783.0405	0.026589
783.7475	0.029289
784.4547	0.025535
785.1619	0.024923
785.8692	0.025830
786.5766	0.023889
787.2841	0.023847
787.9917	0.025513
788.6993	0.025197
789.4070	0.023510
790.1148	0.023678
790.8227	0.021126
791.5306	0.020261
792.2387	0.018532
792.9468	0.017604
793.6550	0.020240
794.3632	0.027117
795.0716	0.025492
795.7800	0.023552
796.4885	0.019734
797.1971	0.020282
797.9058	0.020430
798.6145	0.018658
799.3233	0.019375
800.0322	0.016001
800.7412	0.015073
801.4503	0.017962
802.1594	0.014566
802.8686	0.013976
803.5779	0.014735
804.2873	0.014819
804.9968	0.014250
805.7063	0.014841
806.4159	0.018679
807.1256	0.018300
807.8354	0.020915
808.5452	0.020599
809.2551	0.020683
809.9651	0.016528
810.6752	0.015326
811.3853	0.014967
812.0956	0.014482
812.8059	0.012689
813.5163	0.014988
814.2267	0.015790
814.9373	0.012731
815.6479	0.012309
816.3586	0.012141
817.0694	0.012520
817.7802	0.012394
818.4912	0.011360
819.2022	0.012141
819.9133	0.010601
820.6244	0.012267
821.3357	0.012267
822.0470	0.012014
822.7584	0.009377
823.4698	0.008428
824.1814	0.009715
824.8930	0.010390
825.6047	0.010981
826.3165	0.009145
827.0283	0.008935
827.7402	0.010369
828.4522	0.010854
829.1643	0.011423
829.8765	0.009483
830.5887	0.007901
831.3010	0.007437
832.0134	0.005771
832.7259	0.007669
833.4384	0.007985
834.1510	0.008703
834.8637	0.010221
835.5765	0.007859
836.2893	0.007205
837.0022	0.007099
837.7152	0.005328
838.4283	0.005328
839.1414	0.005264
839.8546	0.006572
840.5679	0.006382
841.2813	0.005412
841.9947	0.005412
842.7082	0.003071
843.4218	0.005897
844.1355	0.006467
844.8492	0.003788
845.5631	0.005539
846.2770	0.003725
846.9909	0.003809
847.7050	0.004442
848.4191	0.003619
849.1333	0.003809
849.8475	0.003535
850.5619	0.004758
851.2763	0.002375
851.9908	0.004653
852.7053	0.007121
853.4200	0.011149
854.1347	0.011930
854.8495	0.011993
855.5643	0.010896
856.2792	0.009905
856.9942	0.010833
857.7093	0.009610
858.4245	0.009019
859.1397	0.006614
859.8550	0.007922
860.5704	0.006425
861.2858	0.006530
862.0013	0.005201
862.7169	0.006256
863.4326	0.005792
864.1483	0.004821
864.8642	0.004400
865.5800	0.005011
866.2960	0.003387
867.0120	0.004463
867.7281	0.005918
868.4443	0.004484
869.1606	0.004927
869.8769	0.005075
870.5933	0.003704
871.3097	0.005222
872.0263	0.004442
872.7429	0.004589
873.4596	0.003893
874.1763	0.005433
874.8932	0.005939
875.6101	0.005982
876.3270	0.005707
877.0441	0.004400
877.7612	0.005454
878.4784	0.005222
879.1957	0.006087
879.9130	0.006298
880.6304	0.006551
881.3479	0.006551
882.0654	0.004231
882.7831	0.003682
883.5007	0.005539
884.2185	0.005518
884.9363	0.005307
885.6542	0.006108
886.3722	0.005813
887.0903	0.004336
887.8084	0.005011
888.5266	0.004231
889.2448	0.005771
889.9632	0.004632
890.6816	0.003788
891.4001	0.002501
892.1186	0.005792
892.8372	0.003514
893.5559	0.003472
894.2747	0.003725
894.9935	0.004779
895.7124	0.004400
896.4314	0.003661
897.1504	0.002691
897.8695	0.003472
898.5887	0.004716
899.3079	0.004083
900.0272	0.004041
900.7466	0.003725
901.4661	0.003472
902.1856	0.003387
902.9052	0.003218
903.6249	0.003598
904.3446	0.003936
905.0644	0.004125
905.7843	0.004336
906.5043	0.004442
907.2243	0.002670
907.9444	0.002965
908.6645	0.001784
909.3847	0.003661
910.1050	0.002986
910.8254	0.003978
911.5458	0.003282
912.2663	0.003429
912.9869	0.003957
913.7075	0.002311
914.4283	0.001847
915.1490	0.002543
915.8699	0.002775
916.5908	0.003176
917.3118	0.004062
918.0328	0.002733
918.7539	0.002522
919.4751	0.003218
920.1964	0.003282
920.9177	0.003366
921.6391	0.001847
922.3606	0.003071
923.0821	0.004315
923.8037	0.002522
924.5254	0.001700
925.2471	0.002311
925.9689	0.002986
926.6908	0.002733
927.4127	0.002522
928.1347	0.002818
928.8568	0.001004
929.5789	0.002143
930.3011	0.001531
931.0234	0.002100
931.7457	0.001151
932.4681	0.002311
933.1906	0.002333
933.9131	0.002122
934.6358	0.002100
935.3584	0.002311
936.0812	0.002459
936.8040	0.002839
937.5269	0.001932
938.2498	0.001151
938.9728	0.001236
939.6959	0.000139
940.4190	0.000919
941.1422	0.000708
941.8655	0.000751
942.5889	0.002923
943.3123	0.001658
944.0357	0.001658
944.7593	0.002290
945.4829	0.000898
946.2066	0.001658
946.9303	0.001468
947.6541	0.001046
948.3780	0.001109
949.1019	0.001953
949.8259	0.000751
950.5500	0.003324
951.2741	0.000983
951.9983	0.001615
952.7226	0.002164
953.4469	0.001763
954.1713	-0.000494
954.8958	0.001299
955.6203	0.002037
956.3449	0.001046
957.0696	0.001257
957.7943	-0.000220
958.5191	0.000476
959.2439	0.003007
959.9688	0.000561
960.6938	0.000708
961.4189	0.000751
962.1440	0.000139
962.8692	0.001826
963.5944	0.000139
964.3197	0.000519
965.0451	0.001847
965.7705	0.000751
966.4960	0.001299
967.2216	0.000561
967.9472	0.001868
968.6729	0.001046
969.3987	0.002164
970.1245	0.000054
970.8504	0.001172
971.5763	-0.000895
972.3023	0.000919
973.0284	0.000118
973.7545	0.000772
974.4807	0.001426
975.2070	0.002670
975.9333	-0.001401
976.6597	-0.000304
977.3862	-0.001063
978.1127	0.000708
978.8393	-0.000114
979.5659	0.002333
980.2926	0.000033
981.0194	-0.000241
981.7462	0.000983
982.4731	-0.000958
983.2001	-0.000114
983.9271	0.002333
984.6542	0.001215
985.3814	-0.000283
986.1086	-0.000726
986.8358	0.001658
987.5632	0.000076
988.2906	0.000287
989.0180	0.001615
989.7456	-0.000114
990.4732	0.000350
991.2008	0.000708
991.9285	0.000898
992.6563	0.001784
993.3841	0.000983
994.1120	0.001109
994.8400	0.000666
995.5680	0.000624
996.2961	0.001257
997.0242	0.000645
997.7524	0.000476
998.4807	0.000476
999.2090	0.000160
999.9374	-0.000599
1000.67	-0.000747
1001.39	0.000392
1002.12	-0.000304
1002.85	0.000012
1003.58	0.000308
1004.31	0.000160
1005.04	0.000540
1005.77	-0.000283
1006.5	-0.000705
1007.22	0.000160
1007.95	-0.000135
1008.68	-0.000747
1009.41	0.001468
1010.14	0.001067
1010.87	0.001636
1011.6	0.001679
1012.33	0.001215
1013.06	0.001067
1013.79	0.001320
1014.52	-0.000431
1015.25	0.000519
1015.98	0.000350
1016.71	0.000666
1017.44	-0.000916
1018.17	0.001594
1018.9	0.000793
1019.63	0.001130
1020.36	0.001531
1021.09	0.000519
1021.82	-0.000599
1022.55	0.001447
1023.03	0.000519