File: Auto_Polymerization/Data/UV_VIS_Spectra/MRG-061-F5_spectra_while_stopped_with_alu_foil/spectrum_2025-06-20_09-16-54_absorbance.txt
# Wavelength	Absorbance
197.78 -0.329651
198.392 -0.526027
199.004 -0.194720
199.617 -0.232663
200.229 -0.760899
200.842 -0.294450
201.455 0.167814
202.067 0.082816
202.68 -0.520156
203.294 -0.265225
203.907 -1.168063
204.52 -0.021261
205.134 0.416165
205.748 2.682145
206.361 -3.166430
206.975 2.294466
207.589 -3.160168
208.204 3.152288
208.818 -0.603445
209.433 0.230342
210.047 -0.123036
210.662 0.599012
211.277 0.211592
211.892 -0.356950
212.507 0.414598
213.122 1.787106
213.738 1.104613
214.353 -3.160168
214.969 0.059569
215.585 2.846955
216.201 2.806180
216.817 1.754603
217.433 -0.436569
218.049 -2.569374
218.666 0.763428
219.282 0.085885
219.899 0.472456
220.516 -3.213783
221.133 2.902003
221.75 0.114627
222.368 0.564979
222.985 0.000000
223.603 -0.340671
224.22 -0.056604
224.838 -0.395361
225.456 0.449093
226.074 -0.320819
226.692 -2.305351
227.311 0.213209
227.929 0.176213
228.548 3.108227
229.167 -2.714330
229.786 -0.209610
230.405 1.963788
231.024 0.373225
231.643 -0.441667
232.262 0.119955
232.882 2.599883
233.501 -0.300213
234.121 0.000000
234.741 0.401248
235.361 0.285587
235.982 0.358173
236.602 -2.887054
237.222 -0.412533
237.843 -1.487994
238.464 -0.231794
239.084 -3.120245
239.706 0.385774
240.327 0.309518
240.948 -0.260812
241.569 0.115261
242.191 0.858521
242.812 2.587711
243.434 -0.259319
244.056 0.000000
244.678 0.013499
245.3 -0.955299
245.923 0.139070
246.545 2.396199
247.167 -0.020155
247.79 -0.672098
248.413 -0.014316
249.036 -0.022479
249.659 0.164810
250.282 3.189490
250.906 2.480007
251.529 -1.257632
252.153 3.289589
252.776 -0.584783
253.4 0.072276
254.024 1.354225
254.648 -0.582226
255.273 3.097604
255.897 -0.183589
256.521 -0.306808
257.146 0.153815
257.771 0.000000
258.396 -0.058037
259.021 -0.050516
259.646 0.255383
260.271 -0.538992
260.897 0.146662
261.522 0.526752
262.148 -0.144283
262.774 -0.198780
263.399 -0.023368
264.026 -0.557077
264.652 -0.056211
265.278 0.225416
265.904 -0.215579
266.531 -0.852901
267.158 -0.509481
267.784 -0.563046
268.411 0.428317
269.038 -0.572505
269.666 -0.087406
270.293 -2.517196
270.921 0.137428
271.548 2.691965
272.176 1.019931
272.804 0.134548
273.432 0.859893
274.06 -0.250492
274.688 -0.001137
275.316 0.397367
275.945 0.251342
276.573 0.016632
277.202 -0.112893
277.831 0.145468
278.46 0.677829
279.089 -0.229721
279.718 0.385715
280.348 0.489442
280.977 -0.458663
281.607 -2.204120
282.237 -0.267213
282.866 -0.342486
283.497 -0.135830
284.127 0.845098
284.757 3.025715
285.387 -2.714330
286.018 0.384155
286.648 0.423321
287.279 -0.319475
287.91 0.888783
288.541 0.342654
289.172 -3.053078
289.803 -2.932474
290.435 -2.910091
291.067 -0.158147
291.698 -0.410051
292.33 -0.228408
292.962 -2.748188
293.594 -0.033000
294.226 -1.986772
294.858 0.279632
295.491 0.000000
296.123 0.438168
296.756 0.358165
297.389 0.220673
298.022 0.185904
298.654 -0.068469
299.288 0.000000
299.921 0.181439
300.554 -0.025807
301.188 0.309303
301.822 0.217371
302.455 -0.001385
303.089 -0.479022
303.723 -0.202826
304.357 -0.520307
304.992 0.053029
305.626 -0.128780
306.261 1.532639
306.895 2.575188
307.53 0.163943
308.165 -2.658011
308.8 -0.064762
309.435 -0.503027
310.07 -0.166082
310.706 -0.112831
311.341 -0.074992
311.977 0.526752
312.613 0.869822
313.249 0.410348
313.885 -0.098332
314.521 0.151552
315.157 0.293932
315.793 2.653213
316.43 1.267496
317.067 0.255273
317.703 0.134044
318.34 3.097604
318.977 0.124358
319.614 0.117914
320.252 1.316640
320.889 -0.456304
321.526 0.879310
322.164 0.159452
322.802 0.291139
323.44 3.437433
324.078 0.178803
324.716 0.702798
325.354 1.278414
325.992 0.238069
326.631 0.731461
327.269 0.580016
327.908 0.545080
328.547 0.600060
329.186 0.313160
329.825 3.485153
330.464 0.656997
331.104 0.324253
331.743 0.375706
332.383 0.824520
333.022 1.608835
333.662 0.468559
334.302 1.026191
334.942 0.355579
335.582 1.292574
336.223 1.096863
336.863 3.676053
337.504 1.685326
338.144 3.781037
338.785 0.582961
339.426 0.460993
340.067 0.831297
340.708 1.397238
341.349 0.540655
341.991 0.839054
342.632 0.717186
343.274 0.516259
343.916 0.484244
344.558 1.011768
345.2 0.935759
345.842 0.589488
346.484 1.240604
347.126 0.709559
347.769 1.154733
348.411 0.585744
349.054 1.145768
349.697 0.837416
350.34 0.918753
350.983 1.019095
351.626 0.893842
352.27 0.628651
352.913 1.379661
353.557 2.007941
354.2 1.944126
354.844 0.738037
355.488 0.764346
356.132 1.093841
356.776 1.137371
357.421 0.774419
358.065 1.154978
358.709 1.002579
359.354 3.988202
359.999 0.706312
360.644 1.039498
361.289 0.662837
361.934 0.830634
362.579 1.212812
363.224 0.994578
363.87 0.893987
364.515 1.012473
365.161 0.802319
365.807 4.020403
366.453 0.814287
367.099 0.964348
367.745 1.141550
368.392 4.101850
369.038 1.946053
369.685 4.136974
370.331 4.097847
370.978 1.257956
371.625 1.412521
372.272 0.806001
372.919 0.947675
373.566 1.406449
374.214 0.911701
374.861 1.194189
375.509 0.946009
376.156 1.444138
376.804 4.234720
377.452 2.283045
378.1 1.225508
378.748 1.379669
379.397 1.241548
380.045 2.298988
380.694 1.059979
381.342 1.192854
381.991 1.191043
382.64 1.331253
383.289 2.146922
383.938 0.960166
384.587 1.511835
385.237 1.319703
385.886 1.188142
386.536 1.450286
387.186 1.121325
387.836 1.255534
388.485 0.994011
389.135 1.008752
389.786 0.828395
390.436 0.837492
391.086 0.801206
391.737 0.765925
392.387 0.656555
393.038 0.813005
393.689 0.544893
394.34 0.624771
394.991 0.569246
395.642 0.613490
396.294 0.539897
396.945 0.497463
397.597 0.424311
398.248 0.453319
398.9 0.430907
399.552 0.389134
400.204 0.401597
400.856 0.355831
401.509 0.395320
402.161 0.335786
402.813 0.296033
403.466 0.282885
404.119 0.274219
404.772 0.297184
405.425 0.234160
406.078 0.271829
406.731 0.244540
407.384 0.255613
408.038 0.299879
408.691 0.244010
409.345 0.248481
409.998 0.269550
410.652 0.284496
411.306 0.224866
411.961 0.210038
412.615 0.213256
413.269 0.208673
413.923 0.216377
414.578 0.210173
415.233 0.186949
415.887 0.215934
416.542 0.212010
417.197 0.164380
417.852 0.210290
418.508 0.198401
419.163 0.151629
419.818 0.204104
420.474 0.208181
421.13 0.222549
421.786 0.188573
422.442 0.216484
423.098 0.189666
423.754 0.232302
424.41 0.228061
425.066 0.198753
425.723 0.203788
426.379 0.204025
427.036 0.205168
427.693 0.202216
428.35 0.208927
429.007 0.234005
429.664 0.217973
430.321 0.227301
430.979 0.228548
431.636 0.256140
432.294 0.228251
432.952 0.252168
433.609 0.251002
434.267 0.259166
434.925 0.251087
435.584 0.236413
436.242 0.229623
436.9 0.244316
437.559 0.255503
438.217 0.241470
438.876 0.274236
439.535 0.234717
440.194 0.270914
440.853 0.286772
441.512 0.293222
442.171 0.271347
442.831 0.273951
443.49 0.285788
444.15 0.301805
444.81 0.303374
445.469 0.300639
446.129 0.320410
446.789 0.311278
447.45 0.337293
448.11 0.323048
448.77 0.355732
449.431 0.361309
450.091 0.347246
450.752 0.358576
451.413 0.406784
452.074 0.355988
452.735 0.340471
453.396 0.376996
454.057 0.381273
454.719 0.392576
455.38 0.463213
456.042 0.409011
456.704 0.449835
457.365 0.429750
458.027 0.469267
458.689 0.476242
459.352 0.466915
460.014 0.475635
460.676 0.510548
461.339 0.465950
462.001 0.534013
462.664 0.464877
463.327 0.541650
463.99 0.636023
464.653 0.545624
465.316 0.565210
465.979 0.595873
466.642 0.637809
467.306 0.555497
467.97 0.622844
468.633 0.643036
469.297 0.686232
469.961 0.561916
470.625 0.628787
471.289 0.678104
471.953 0.566696
472.618 0.697120
473.282 0.833277
473.947 0.702395
474.611 0.816932
475.276 0.717918
475.941 0.671693
476.606 0.714120
477.271 0.748824
477.936 0.887502
478.602 0.859076
479.267 0.805461
479.933 0.828041
480.598 0.981446
481.264 0.878155
481.93 0.849282
482.596 0.808779
483.262 0.930097
483.928 0.969942
484.594 0.911207
485.261 1.002216
485.927 1.045228
486.594 1.001265
487.26 1.031723
487.927 0.977221
488.594 1.020987
489.261 1.173557
489.928 0.948266
490.596 1.183195
491.263 1.137726
491.93 1.029738
492.598 1.077935
493.266 1.053955
493.933 1.046952
494.601 1.203749
495.269 1.108298
495.937 1.148991
496.606 1.160659
497.274 1.401133
497.942 1.128692
498.611 1.062650
499.279 1.195502
499.948 1.092778
500.617 1.185083
501.286 1.267349
501.955 1.108066
502.624 1.404187
503.293 1.277800
503.963 1.195733
504.632 1.155983
505.302 1.120986
505.972 0.997380
506.641 1.140415
507.311 1.067216
507.981 1.150400
508.651 1.321997
509.322 1.116338
509.992 1.351218
510.662 1.259941
511.333 1.025272
512.004 1.061710
512.674 1.143563
513.345 1.154691
514.016 1.244586
514.687 1.048021
515.358 1.080806
516.029 1.096840
516.701 1.132456
517.372 1.064674
518.044 1.016681
518.716 1.059804
519.387 1.079460
520.059 1.337049
520.731 1.130972
521.403 1.109941
522.076 1.017483
522.748 1.078934
523.42 1.196043
524.093 0.943378
524.765 0.929564
525.438 0.909281
526.111 0.974617
526.784 0.956530
527.457 0.883792
528.13 0.845051
528.803 0.919982
529.476 1.017255
530.15 0.881191
530.823 0.866713
531.497 0.931403
532.171 0.827793
532.845 0.825912
533.519 0.848274
534.193 0.747842
534.867 0.832278
535.541 0.788131
536.216 0.684530
536.89 0.712528
537.564 0.772562
538.239 0.736046
538.914 0.633356
539.589 0.704187
540.264 0.602834
540.939 0.655255
541.614 0.622495
542.289 0.651553
542.965 0.636618
543.64 0.656347
544.316 0.579819
544.991 0.568910
545.667 0.547196
546.343 0.597580
547.019 0.547631
547.695 0.474019
548.371 0.505482
549.048 0.476025
549.724 0.495961
550.401 0.433397
551.077 0.469561
551.754 0.454671
552.431 0.426827
553.108 0.425068
553.785 0.373644
554.462 0.392083
555.139 0.345435
555.816 0.406567
556.494 0.326581
557.171 0.318177
557.849 0.330692
558.527 0.344274
559.204 0.318607
559.882 0.309551
560.56 0.298206
561.238 0.289531
561.917 0.281295
562.595 0.293002
563.273 0.279390
563.952 0.290367
564.63 0.287568
565.309 0.247234
565.988 0.248249
566.667 0.240912
567.346 0.227537
568.025 0.214492
568.704 0.222038
569.384 0.224598
570.063 0.201535
570.742 0.198038
571.422 0.196287
572.102 0.194025
572.782 0.187242
573.462 0.180385
574.141 0.185706
574.822 0.171654
575.502 0.176989
576.182 0.181100
576.863 0.180315
577.543 0.166677
578.224 0.161314
578.904 0.155805
579.585 0.151155
580.266 0.136540
580.947 0.141038
581.628 0.134835
582.309 0.137394
582.991 0.129832
583.672 0.135314
584.354 0.130114
585.035 0.138348
585.717 0.130231
586.399 0.114612
587.08 0.121988
587.762 0.126220
588.444 0.124515
589.127 0.105196
589.809 0.118057
590.491 0.128493
591.174 0.118738
591.856 0.114684
592.539 0.111389
593.222 0.116859
593.905 0.106811
594.587 0.101020
595.27 0.114325
595.954 0.118399
596.637 0.114454
597.32 0.103843
598.004 0.105353
598.687 0.113525
599.371 0.106051
600.055 0.107824
600.738 0.099917
601.422 0.093836
602.106 0.104916
602.79 0.088080
603.475 0.101041
604.159 0.097209
604.843 0.085140
605.528 0.094305
606.212 0.084088
606.897 0.086486
607.582 0.103604
608.267 0.072701
608.952 0.089141
609.637 0.078069
610.322 0.078717
611.007 0.082334
611.693 0.079172
612.378 0.090515
613.064 0.076536
613.749 0.086980
614.435 0.085831
615.121 0.072852
615.807 0.078005
616.493 0.083003
617.179 0.077677
617.865 0.087142
618.552 0.045596
619.238 0.073820
619.924 0.094029
620.611 0.073777
621.298 0.089265
621.985 0.075019
622.671 0.091339
623.358 0.094110
624.045 0.074259
624.733 0.077993
625.42 0.070936
626.107 0.056745
626.795 0.076438
627.482 0.059809
628.17 0.057748
628.858 0.073447
629.545 0.056239
630.233 0.098798
630.921 0.074671
631.609 0.053498
632.298 0.081299
632.986 0.074164
633.674 0.061154
634.363 0.088792
635.051 0.105281
635.74 0.073563
636.429 0.065980
637.118 0.055810
637.807 0.068413
638.496 0.083720
639.185 0.051518
639.874 0.064625
640.563 0.045496
641.253 0.058090
641.942 0.058337
642.632 0.052887
643.322 0.036641
644.011 0.081403
644.701 0.048748
645.391 0.084045
646.081 0.059963
646.771 0.027828
647.462 0.100581
648.152 0.068309
648.842 0.050037
649.533 0.063283
650.224 0.066477
650.914 0.063191
651.605 0.070662
652.296 0.058040
652.987 0.057761
653.678 0.057756
654.369 0.103044
655.061 0.134850
655.752 0.102652
656.443 -0.001453
657.135 0.087726
657.826 0.091824
658.518 0.093962
659.21 0.125729
659.902 0.142197
660.594 0.086263
661.286 0.088369
661.978 0.038767
662.67 0.061934
663.363 0.041731
664.055 0.046148
664.748 0.044025
665.44 0.067649
666.133 0.046449
666.826 0.071163
667.519 0.120587
668.212 0.051935
668.905 0.055256
669.598 0.028195
670.291 0.086093
670.985 0.041840
671.678 0.088186
672.372 0.044240
673.065 0.057146
673.759 0.041968
674.453 0.046528
675.147 0.055356
675.841 0.079079
676.535 0.032165
677.229 0.060914
677.923 0.075178
678.617 0.050049
679.312 0.087586
680.006 0.122678
680.701 0.075165
681.396 0.067126
682.091 0.081565
682.785 0.036390
683.48 0.059450
684.175 0.107487
684.87 0.072853
685.566 0.084386
686.261 0.083403
686.957 0.073504
687.652 0.047265
688.348 0.065721
689.043 0.091861
689.739 0.066065
690.435 0.080015
691.131 0.088976
691.827 0.078254
692.523 0.106165
693.219 0.077496
693.915 0.064860
694.612 0.087989
695.308 0.101462
696.005 0.051351
696.702 0.090040
697.398 0.099351
698.095 0.072752
698.792 0.050236
699.489 0.063398
700.186 0.039927
700.883 0.087070
701.581 0.073426
702.278 0.050721
702.975 0.062402
703.673 0.095628
704.37 0.059589
705.068 0.023789
705.766 0.067819
706.464 0.097767
707.162 0.035305
707.86 0.106156
708.558 0.051302
709.256 0.069844
709.955 0.054340
710.653 0.047062
711.351 0.024688
712.05 0.079488
712.749 0.076541
713.447 0.048128
714.146 0.068312
714.845 0.058233
715.544 0.075172
716.243 0.056150
716.942 0.088191
717.642 0.060121
718.341 0.067707
719.04 0.077846
719.74 0.067932
720.439 0.091808
721.139 0.068333
721.839 0.110323
722.539 0.092548
723.239 0.066648
723.939 0.070783
724.639 0.110677
725.339 0.059947
726.039 0.097462
726.74 0.073040
727.44 0.086732
728.141 0.081253
728.841 0.038196
729.542 0.073871
730.243 0.061131
730.944 0.094228
731.645 0.080192
732.346 0.072666
733.047 0.085693
733.748 0.090187
734.449 0.081992
735.151 0.056894
735.852 0.058380
736.554 0.090236
737.256 0.060855
737.957 0.063461
738.659 0.090534
739.361 0.083161
740.063 0.052588
740.765 0.043507
741.467 0.049836
742.169 0.046235
742.872 0.039996
743.574 0.052933
744.277 0.053165
744.979 0.101186
745.682 0.049345
746.385 0.069817
747.087 0.051625
747.79 0.050360
748.493 0.053571
749.196 0.053557
749.899 0.076591
750.603 0.044881
751.306 0.076849
752.01 0.078022
752.713 0.098097
753.417 0.054975
754.12 0.082046
754.824 0.059357
755.528 0.084330
756.232 0.067854
756.936 0.078835
757.64 0.089648
758.344 0.072116
759.048 0.083163
759.752 0.091177
760.457 0.082197
761.161 0.073433
761.866 0.112830
762.571 0.079583
763.275 0.085660
763.98 0.108018
764.685 0.068943
765.39 0.078940
766.095 0.066384
766.8 0.051671
767.505 0.054437
768.211 0.087625
768.916 0.097764
769.621 0.041922
770.327 0.080292
771.033 0.058608
771.738 0.097470
772.444 0.066545
773.15 0.065314
773.856 0.066373
774.562 0.061339
775.268 0.060545
775.974 0.082883
776.68 0.117262
777.387 0.048300
778.093 0.106766
778.8 0.072399
779.506 0.062197
780.213 0.055349
780.92 0.070431
781.626 0.053951
782.333 0.054933
783.04 0.076147
783.747 0.060673
784.455 0.097862
785.162 0.077654
785.869 0.064681
786.577 0.029301
787.284 0.070688
787.992 0.085367
788.699 0.047265
789.407 0.094771
790.115 0.043302
790.823 0.081532
791.531 0.049491
792.239 0.115511
792.947 0.033888
793.655 0.075980
794.363 0.109720
795.072 0.106679
795.78 0.060073
796.489 0.060389
797.197 0.047371
797.906 0.068381
798.615 0.034018
799.323 0.091655
800.032 0.084589
800.741 0.067520
801.45 0.061419
802.159 0.057954
802.869 0.041979
803.578 0.070538
804.287 0.047172
804.997 0.029250
805.706 0.056716
806.416 0.096829
807.126 0.057606
807.835 0.065463
808.545 0.119078
809.255 0.062062
809.965 0.100910
810.675 0.040539
811.385 0.089814
812.096 0.037475
812.806 0.038963
813.516 0.004356
814.227 0.056475
814.937 0.011020
815.648 0.014398
816.359 0.051971
817.069 0.054328
817.78 0.017522
818.491 0.077858
819.202 0.091922
819.913 0.040959
820.624 0.120181
821.336 0.087693
822.047 0.084841
822.758 0.095916
823.47 0.114127
824.181 0.015940
824.893 0.075211
825.605 0.076567
826.317 0.073758
827.028 0.069101
827.74 0.087893
828.452 0.063043
829.164 -0.020000
829.876 -0.018965
830.589 0.026225
831.301 0.100877
832.013 0.054372
832.726 0.069307
833.438 0.042715
834.151 0.055811
834.864 0.121366
835.577 0.058681
836.289 0.137129
837.002 0.151595
837.715 -0.022388
838.428 0.024184
839.141 0.149955
839.855 0.115227
840.568 0.025342
841.281 0.061229
841.995 -0.038771
842.708 -0.092903
843.422 0.054441
844.135 0.120292
844.849 0.060375
845.563 0.051714
846.277 -0.098269
846.991 -0.081591
847.705 0.150683
848.419 -0.008331
849.133 0.083503
849.847 0.039662
850.562 0.000760
851.276 0.030870
851.991 -0.118010
852.705 0.045876
853.42 0.042140
854.135 0.045305
854.85 0.068257
855.564 0.031632
856.279 0.040624
856.994 0.021735
857.709 0.058607
858.424 0.055009
859.14 0.030294
859.855 0.029174
860.57 0.014774
861.286 0.000603
862.001 0.011431
862.717 0.024078
863.433 0.112578
864.148 -0.051191
864.864 0.078058
865.58 -0.085296
866.296 -0.002815
867.012 -0.036692
867.728 0.063267
868.444 0.088631
869.161 0.102717
869.877 0.155068
870.593 0.018948
871.31 0.051714
872.026 0.007889
872.743 -0.061678
873.46 0.116340
874.176 -0.035682
874.893 0.147386
875.61 0.155256
876.327 0.188880
877.044 0.101199
877.761 -0.053338
878.478 0.047336
879.196 0.152504
879.913 0.092654
880.63 0.103260
881.348 0.108522
882.065 0.010394
882.783 0.013894
883.501 0.000614
884.218 0.042552
884.936 -0.016442
885.654 0.071216
886.372 -0.047560
887.09 0.004256
887.808 0.058232
888.527 -0.068038
889.245 0.111806
889.963 0.249035
890.682 0.208178
891.4 0.165641
892.119 0.067362
892.837 0.136503
893.556 0.092204
894.275 0.053846
894.994 0.051100
895.712 0.129710
896.431 0.110740
897.15 0.002561
897.87 -0.001267
898.589 -0.056003
899.308 0.157321
900.027 -0.135623
900.747 0.048972
901.466 0.007568
902.186 -0.021809
902.905 -0.014019
903.625 -0.001194
904.345 0.025884
905.064 -0.022678
905.784 0.218647
906.504 0.122232
907.224 0.228663
907.944 -0.094756
908.664 -0.066821
909.385 -0.012032
910.105 0.046966
910.825 0.105468
911.546 -0.072162
912.266 0.015996
912.987 -0.151393
913.707 -0.115333
914.428 -0.038269
915.149 0.075542
915.87 0.181304
916.591 -0.116432
917.312 -0.049012
918.033 -0.057673
918.754 0.051225
919.475 0.080375
920.196 -0.109570
920.918 0.099079
921.639 0.012135
922.361 -0.000328
923.082 0.088255
923.804 0.157818
924.525 0.173393
925.247 -0.058199
925.969 0.048018
926.691 0.269737
927.413 0.147353
928.135 0.040236
928.857 0.066425
929.579 0.189202
930.301 -0.046341
931.023 -0.072449
931.746 0.002757
932.468 0.235971
933.191 -0.110856
933.913 0.714776
934.636 -0.035250
935.358 0.204120
936.081 0.131455
936.804 0.039165
937.527 -0.016616
938.25 0.490226
938.973 0.115431
939.696 0.137898
940.419 -0.214625
941.142 -0.264875
941.865 0.143701
942.589 -0.248891
943.312 0.376734
944.036 0.387008
944.759 0.278366
945.483 1.129755
946.207 -0.048605
946.93 -0.450019
947.654 -0.016489
948.378 -0.299669
949.102 0.001570
949.826 0.028188
950.55 -0.035606
951.274 -0.214693
951.998 0.651733
952.723 -0.243431
953.447 -0.055113
954.171 -1.369970
954.896 -0.277643
955.62 -0.209665
956.345 -0.120946
957.07 0.030442
957.794 -0.241648
958.519 0.638668
959.244 -0.185002
959.969 0.153632
960.694 -0.277374
961.419 2.653213
962.144 -0.670388
962.869 -0.233945
963.594 0.170442
964.32 -0.032872
965.045 -0.160230
965.77 -0.237096
966.496 -0.420518
967.222 -0.235143
967.947 -0.300430
968.673 -0.223037
969.399 -0.700620
970.125 -0.416924
970.85 -0.719635
971.576 -0.446141
972.302 0.425048
973.028 3.206826
973.755 0.319285
974.481 -0.009029
975.207 0.109182
975.933 -0.300117
976.66 -0.264740
977.386 -0.382030
978.113 -0.336574
978.839 0.022134
979.566 0.207335
980.293 0.228283
981.019 0.004628
981.746 -1.253892
982.473 0.093578
983.2 -0.206114
983.927 -0.276009
984.654 -0.566118
985.381 0.152529
986.109 -3.208173
986.836 0.394514
987.563 2.700704
988.291 -0.495814
989.018 0.162001
989.746 -1.277721
990.473 -0.224661
991.201 -0.710987
991.928 0.000000
992.656 0.568381
993.384 -0.186570
994.112 0.010995
994.84 0.000000
995.568 -0.544957
996.296 -0.285905
997.024 -1.147235
997.752 -0.365539
998.481 -0.440398
999.209 -3.098990
999.937 -0.413525
1000.67 0.020894
1001.39 0.396770
1002.12 -0.421157
1002.85 -0.199991
1003.58 -3.285782
1004.31 2.719331
1005.04 -0.142009
1005.77 1.051510
1006.5 -0.223716
1007.22 -0.268474
1007.95 0.135828
1008.68 -0.384675
1009.41 -3.084219
1010.14 -0.111099
1010.87 0.088604
1011.6 -1.529180
1012.33 -0.508396
1013.06 -2.953276
1013.79 -0.347836
1014.52 -0.057356
1015.25 0.117042
1015.98 -0.774543
1016.71 -1.081045
1017.44 1.043779
1018.17 0.221424
1018.9 3.021603
1019.63 -0.379968
1020.36 -0.584980
1021.09 0.188140
1021.82 0.000000
1022.55 2.902003
1023.03 -0.188388