File: Auto_Polymerization/Data/UV_VIS_Spectra/MRG-061-F5_spectra_while_stopped_with_alu_foil/spectrum_2025-06-20_09-27-07.txt
# Wavelength (nm)	Intensity (a.u.)
197.7802	0.000311
198.3922	-0.000343
199.0044	0.000733
199.6168	0.000817
200.2292	-0.000111
200.8418	-0.000069
201.4546	0.001155
202.0674	-0.001018
202.6805	-0.000701
203.2936	0.000796
203.9069	-0.000047
204.5203	0.000290
205.1338	0.000880
205.7475	-0.000111
206.3614	0.000733
206.9753	0.000944
207.5894	0.001534
208.2036	0.001429
208.8180	0.001808
209.4325	0.000712
210.0471	-0.000870
210.6618	0.000374
211.2767	0.001471
211.8918	0.000585
212.5069	0.001808
213.1222	-0.000364
213.7376	0.000353
214.3532	-0.000891
214.9689	0.001323
215.5847	0.000185
216.2007	0.000311
216.8168	0.000332
217.4330	0.000353
218.0494	0.000880
218.6659	0.000058
219.2825	0.000290
219.8992	-0.000132
220.5161	0.000902
221.1332	0.001471
221.7503	0.000185
222.3676	0.002336
222.9850	-0.000005
223.6026	0.000037
224.2203	0.000417
224.8381	0.000227
225.4561	0.001239
226.0742	0.000838
226.6924	0.000670
227.3107	0.000944
227.9292	0.000121
228.5478	0.001302
229.1666	0.000227
229.7855	0.000037
230.4045	-0.000216
231.0236	0.000775
231.6429	0.000142
232.2623	-0.000385
232.8818	0.000163
233.5015	0.000775
234.1213	0.000332
234.7413	0.000838
235.3613	-0.000891
235.9815	0.001619
236.6018	-0.000174
237.2223	0.000606
237.8429	0.001197
238.4636	0.000163
239.0845	0.000543
239.7055	0.000606
240.3266	0.000859
240.9478	0.000817
241.5692	-0.000554
242.1907	0.001935
242.8124	0.001218
243.4341	0.000395
244.0560	0.000185
244.6781	0.000522
245.3002	-0.001650
245.9225	0.001323
246.5449	0.000438
247.1675	0.001492
247.7902	0.000206
248.4130	0.001112
249.0359	0.001829
249.6590	0.001387
250.2822	0.000775
250.9056	-0.001102
251.5290	0.000712
252.1526	0.000185
252.7763	0.001218
253.4002	0.000838
254.0242	-0.000026
254.6483	0.001703
255.2725	0.000206
255.8969	0.000965
256.5214	-0.001081
257.1460	0.001745
257.7708	0.001260
258.3957	0.000923
259.0207	0.000501
259.6459	-0.000385
260.2711	0.000206
260.8965	0.001260
261.5221	0.000712
262.1477	0.001028
262.7735	0.000944
263.3995	0.000648
264.0255	0.000627
264.6517	0.001450
265.2780	0.000163
265.9044	-0.000026
266.5310	0.001387
267.1577	0.000395
267.7845	0.001028
268.4114	0.000902
269.0385	-0.000385
269.6657	0.001935
270.2931	0.001661
270.9205	0.000923
271.5481	0.001070
272.1758	-0.000849
272.8037	0.000163
273.4316	0.000311
274.0597	0.000311
274.6880	0.000648
275.3163	-0.000638
275.9448	0.000733
276.5734	0.002399
277.2022	0.000501
277.8310	0.000501
278.4600	0.000311
279.0891	0.000395
279.7184	0.001598
280.3477	0.000100
280.9772	-0.000575
281.6069	0.001555
282.2366	0.000585
282.8665	0.001155
283.4965	0.001323
284.1266	-0.001018
284.7569	0.000100
285.3873	-0.000828
286.0178	0.000227
286.6484	-0.000891
287.2792	-0.000005
287.9101	0.000712
288.5411	0.001619
289.1723	-0.001039
289.8035	0.000838
290.4349	0.001070
291.0665	0.001134
291.6981	0.000374
292.3299	0.001598
292.9618	0.000543
293.5938	0.000522
294.2260	0.001197
294.8582	0.000817
295.4906	-0.000891
296.1232	0.000902
296.7558	0.001555
297.3886	0.001661
298.0215	0.001007
298.6545	0.001091
299.2877	0.000712
299.9210	-0.000849
300.5544	0.000206
301.1879	0.001619
301.8215	-0.000005
302.4553	0.000522
303.0892	0.001218
303.7233	0.000121
304.3574	0.000227
304.9917	0.001049
305.6261	0.000100
306.2606	0.000079
306.8953	0.000564
307.5301	0.001598
308.1650	-0.000258
308.8000	0.000627
309.4351	0.000606
310.0704	0.002483
310.7058	0.001534
311.3413	0.001091
311.9770	-0.000153
312.6127	0.000691
313.2486	-0.000575
313.8846	0.000227
314.5208	0.000923
315.1570	0.000923
315.7934	0.000965
316.4299	0.000902
317.0666	0.001323
317.7033	0.000079
318.3402	0.000944
318.9772	0.001640
319.6143	-0.000385
320.2516	0.001872
320.8890	-0.000701
321.5265	0.001745
322.1641	-0.000659
322.8018	0.001028
323.4397	0.000923
324.0777	0.000248
324.7158	0.000775
325.3540	0.001197
325.9924	0.001302
326.6308	0.001112
327.2694	-0.000047
327.9082	0.001471
328.5470	0.000459
329.1860	0.000206
329.8251	0.001302
330.4643	0.000606
331.1036	-0.000554
331.7431	0.000332
332.3826	0.000206
333.0223	0.000543
333.6622	-0.000364
334.3021	0.002104
334.9422	-0.000617
335.5823	0.000817
336.2227	-0.000343
336.8631	0.001134
337.5036	-0.000237
338.1443	0.000880
338.7851	0.001197
339.4260	0.000754
340.0670	-0.000596
340.7082	0.000311
341.3495	0.000859
341.9909	0.001091
342.6324	0.001028
343.2740	0.000754
343.9158	0.000501
344.5577	-0.000364
345.1997	0.001724
345.8418	0.000522
346.4840	0.000227
347.1264	0.000712
347.7689	0.000248
348.4115	0.000543
349.0542	-0.000701
349.6971	0.000648
350.3400	0.000627
350.9831	0.000332
351.6263	-0.001123
352.2696	0.000142
352.9131	0.001028
353.5566	0.001218
354.2003	0.000374
354.8441	0.000163
355.4881	-0.000216
356.1321	0.001787
356.7763	0.000986
357.4206	0.000838
358.0650	0.000016
358.7095	0.000923
359.3541	-0.000047
359.9989	0.001555
360.6438	0.000501
361.2888	-0.000511
361.9339	0.000733
362.5791	0.001619
363.2245	0.001049
363.8699	0.000775
364.5155	0.000142
365.1612	-0.000090
365.8071	-0.000975
366.4530	0.000163
367.0991	-0.000743
367.7453	0.001155
368.3916	0.000438
369.0380	0.001724
369.6845	0.000775
370.3312	0.000880
370.9780	0.000965
371.6249	0.001703
372.2719	0.001977
372.9190	0.001661
373.5663	0.000185
374.2136	0.001007
374.8611	0.001450
375.5087	0.000100
376.1564	0.000986
376.8043	0.000606
377.4522	0.001555
378.1003	0.000859
378.7485	-0.000828
379.3968	0.001872
380.0452	0.001049
380.6938	0.001787
381.3424	0.001218
381.9912	0.001598
382.6401	-0.000659
383.2891	0.001408
383.9382	0.000417
384.5875	0.000058
385.2368	0.000691
385.8863	0.000838
386.5359	0.000691
387.1856	0.001703
387.8355	0.000691
388.4854	0.003833
389.1355	0.001302
389.7856	0.002842
390.4359	0.001998
391.0863	0.003854
391.7369	0.002293
392.3875	0.005162
393.0383	0.005014
393.6891	0.004698
394.3401	0.004529
394.9912	0.006785
395.6425	0.006638
396.2938	0.008177
396.9453	0.007840
397.5968	0.009590
398.2485	0.009084
398.9003	0.011067
399.5522	0.011045
400.2043	0.011341
400.8564	0.011530
401.5087	0.010307
402.1610	0.011130
402.8135	0.012437
403.4661	0.011994
404.1189	0.013914
404.7717	0.014694
405.4246	0.014040
406.0777	0.014483
406.7309	0.015664
407.3842	0.013787
408.0376	0.015348
408.6911	0.016740
409.3448	0.017203
409.9985	0.016676
410.6524	0.017056
411.3064	0.017899
411.9605	0.018005
412.6147	0.019523
413.2690	0.019840
413.9234	0.019861
414.5780	0.019776
415.2326	0.017836
415.8874	0.017309
416.5423	0.020029
417.1973	0.018912
417.8524	0.019966
418.5077	0.020029
419.1630	0.022181
419.8185	0.023214
420.4741	0.021379
421.1298	0.023868
421.7856	0.026251
422.4415	0.023362
423.0975	0.024500
423.7536	0.023741
424.4099	0.022750
425.0663	0.024542
425.7228	0.023425
426.3793	0.019502
427.0361	0.022898
427.6929	0.024226
428.3498	0.022560
429.0068	0.021358
429.6640	0.025597
430.3213	0.026504
430.9787	0.026251
431.6362	0.025217
432.2938	0.019840
432.9515	0.021885
433.6093	0.024796
434.2673	0.022855
434.9253	0.021949
435.5835	0.026103
436.2418	0.023214
436.9001	0.022898
437.5586	0.022919
438.2173	0.023657
438.8760	0.024943
439.5348	0.022919
440.1938	0.022096
440.8528	0.024226
441.5120	0.027811
442.1713	0.025787
442.8307	0.024015
443.4902	0.026441
444.1498	0.026398
444.8095	0.025955
445.4694	0.024669
446.1293	0.024015
446.7894	0.023383
447.4496	0.023172
448.1098	0.023868
448.7702	0.023509
449.4307	0.022771
450.0914	0.020451
450.7521	0.021379
451.4129	0.017351
452.0739	0.022075
452.7349	0.019333
453.3961	0.019523
454.0574	0.018363
454.7188	0.017351
455.3803	0.017077
456.0419	0.018701
456.7036	0.017393
457.3654	0.016508
458.0274	0.015179
458.6894	0.017984
459.3516	0.017014
460.0138	0.016740
460.6762	0.017309
461.3387	0.017246
462.0013	0.014652
462.6640	0.014251
463.3268	0.014462
463.9897	0.012458
464.6528	0.014567
465.3159	0.013302
465.9792	0.013935
466.6425	0.012458
467.3060	0.012627
467.9696	0.010560
468.6333	0.010518
469.2970	0.009843
469.9610	0.009190
470.6250	0.008726
471.2891	0.007270
471.9533	0.008979
472.6177	0.008304
473.2821	0.007861
473.9467	0.008388
474.6113	0.007355
475.2761	0.009253
475.9410	0.007397
476.6060	0.007060
477.2711	0.005773
477.9363	0.007629
478.6016	0.006385
479.2670	0.007650
479.9325	0.006406
480.5982	0.007692
481.2639	0.006068
481.9298	0.007102
482.5957	0.006617
483.2618	0.005794
483.9280	0.005668
484.5943	0.005288
485.2606	0.007418
485.9271	0.015854
486.5937	0.013935
487.2605	0.007249
487.9273	0.005858
488.5942	0.005457
489.2612	0.003474
489.9284	0.006047
490.5956	0.002884
491.2630	0.005204
491.9304	0.004719
492.5980	0.004634
493.2657	0.004023
493.9334	0.005077
494.6013	0.003221
495.2693	0.002525
495.9374	0.002842
496.6056	0.002800
497.2739	0.003559
497.9423	0.002631
498.6109	0.003074
499.2795	0.003854
499.9482	0.004529
500.6171	0.002441
501.2860	0.003517
501.9551	0.003221
502.6242	0.003917
503.2935	0.005035
503.9628	0.004128
504.6323	0.004360
505.3019	0.003221
505.9716	0.004360
506.6414	0.003538
507.3113	0.002778
507.9813	0.002926
508.6514	0.002905
509.3216	0.002610
509.9919	0.003053
510.6623	0.003601
511.3329	0.002715
512.0035	0.001851
512.6742	0.002504
513.3451	0.003706
514.0160	0.003032
514.6871	0.002040
515.3582	0.003137
516.0295	0.003938
516.7008	0.003749
517.3723	0.004065
518.0439	0.003074
518.7155	0.002926
519.3873	0.003474
520.0592	0.003559
520.7312	0.003559
521.4033	0.003285
522.0755	0.002989
522.7478	0.002821
523.4202	0.002104
524.0927	0.003053
524.7653	0.004782
525.4380	0.004023
526.1108	0.004339
526.7837	0.004782
527.4568	0.003917
528.1299	0.004592
528.8031	0.003664
529.4765	0.004698
530.1499	0.004529
530.8234	0.005626
531.4971	0.004845
532.1708	0.005499
532.8447	0.006448
533.5186	0.008135
534.1927	0.007102
534.8668	0.005879
535.5411	0.007650
536.2155	0.007924
536.8899	0.006785
537.5645	0.007629
538.2392	0.007988
538.9139	0.009063
539.5888	0.009337
540.2638	0.007777
540.9389	0.010603
541.6140	0.011151
542.2893	0.010581
542.9647	0.009949
543.6402	0.011256
544.3158	0.012922
544.9915	0.013703
545.6673	0.013745
546.3432	0.014103
547.0192	0.013175
547.6953	0.016592
548.3715	0.018553
549.0478	0.015516
549.7242	0.017963
550.4007	0.015179
551.0773	0.015875
551.7540	0.017372
552.4308	0.017499
553.1077	0.018996
553.7847	0.019713
554.4618	0.019565
555.1390	0.021780
555.8163	0.022813
556.4937	0.022518
557.1712	0.020346
557.8488	0.022855
558.5266	0.022159
559.2044	0.023572
559.8823	0.021506
560.5603	0.026799
561.2384	0.028971
561.9166	0.030258
562.5949	0.028128
563.2733	0.030173
563.9519	0.030827
564.6305	0.035530
565.3092	0.034918
565.9880	0.034771
566.6669	0.038208
567.3459	0.043881
568.0250	0.046581
568.7043	0.059297
569.3836	0.064760
570.0630	0.087451
570.7425	0.089434
571.4221	0.106811
572.1018	0.116744
572.7816	0.101708
573.4615	0.117799
574.1415	0.133890
574.8216	0.145172
575.5018	0.145742
576.1821	0.133552
576.8626	0.150845
577.5431	0.167506
578.2237	0.205762
578.9044	0.167864
579.5851	0.172040
580.2660	0.176954
580.9470	0.172272
581.6281	0.275398
582.3093	0.262154
582.9906	0.202661
583.6720	0.161854
584.3535	0.167590
585.0351	0.191801
585.7167	0.201523
586.3985	0.176806
587.0804	0.181235
587.7624	0.190662
588.4445	0.170943
589.1266	0.151794
589.8089	0.137137
590.4913	0.128343
591.1737	0.111367
591.8563	0.113813
592.5389	0.127922
593.2217	0.173917
593.9046	0.165523
594.5875	0.145868
595.2705	0.164659
595.9537	0.146944
596.6369	0.125159
597.3203	0.124695
598.0037	0.122839
598.6872	0.133594
599.3709	0.157130
600.0546	0.155844
600.7384	0.157763
601.4223	0.153207
602.1064	0.142452
602.7905	0.143844
603.4747	0.161875
604.1590	0.153186
604.8434	0.133215
605.5279	0.135176
606.2125	0.143823
606.8972	0.132624
607.5819	0.138403
608.2668	0.126572
608.9518	0.120646
609.6369	0.113054
610.3220	0.131464
611.0073	0.119233
611.6927	0.118495
612.3781	0.112189
613.0637	0.110418
613.7493	0.109068
614.4351	0.107149
615.1209	0.107085
615.8068	0.112632
616.4929	0.094938
617.1790	0.093778
617.8652	0.092935
618.5515	0.088042
619.2379	0.077497
619.9244	0.080133
620.6110	0.081863
621.2977	0.061680
621.9845	0.069125
622.6714	0.074081
623.3584	0.079416
624.0454	0.074165
624.7326	0.077540
625.4199	0.070728
626.1072	0.068134
626.7947	0.061195
627.4822	0.057547
628.1698	0.054004
628.8576	0.051030
629.5454	0.055122
630.2333	0.054384
630.9213	0.048120
631.6094	0.044219
632.2976	0.045104
632.9859	0.037639
633.6743	0.038145
634.3628	0.038061
635.0514	0.035066
635.7400	0.036669
636.4288	0.039727
637.1177	0.039094
637.8066	0.035952
638.4957	0.037829
639.1848	0.034560
639.8740	0.032214
640.5633	0.032839
641.2528	0.030644
641.9423	0.028035
642.6319	0.028074
643.3216	0.026657
644.0113	0.025129
644.7012	0.023319
645.3912	0.022883
646.0812	0.020946
646.7714	0.022929
647.4616	0.021193
648.1520	0.025683
648.8424	0.029867
649.5329	0.028580
650.2236	0.027133
650.9143	0.024746
651.6051	0.024310
652.2960	0.028612
652.9870	0.029035
653.6780	0.027864
654.3692	0.028959
655.0605	0.050656
655.7518	0.807261
656.4433	1.000000
657.1348	0.740573
657.8264	0.450040
658.5181	0.341656
659.2099	0.252360
659.9018	0.063173
660.5938	0.023711
661.2859	0.020581
661.9781	0.021167
662.6704	0.020465
663.3627	0.018958
664.0552	0.020262
664.7477	0.019897
665.4403	0.021183
666.1330	0.020428
666.8259	0.018400
667.5188	0.019336
668.2117	0.020224
668.9048	0.018363
669.5980	0.017984
670.2913	0.018068
670.9846	0.018553
671.6781	0.024859
672.3716	0.029456
673.0652	0.028107
673.7589	0.026904
674.4527	0.024036
675.1466	0.024184
675.8406	0.021949
676.5347	0.020873
677.2288	0.021548
677.9231	0.025576
678.6174	0.025955
679.3119	0.028296
680.0064	0.031692
680.7010	0.031228
681.3957	0.030068
682.0905	0.029161
682.7854	0.025281
683.4803	0.026778
684.1754	0.026567
684.8705	0.034602
685.5658	0.038377
686.2611	0.039811
686.9565	0.037280
687.6520	0.040233
688.3476	0.033316
689.0433	0.030279
689.7390	0.032092
690.4349	0.027959
691.1308	0.032683
691.8269	0.031059
692.5230	0.033716
693.2192	0.035087
693.9155	0.034961
694.6119	0.028043
695.3083	0.031481
696.0049	0.024880
696.7016	0.029140
697.3983	0.032493
698.0951	0.033526
698.7920	0.033084
699.4890	0.030616
700.1861	0.027495
700.8833	0.026778
701.5806	0.023572
702.2779	0.025766
702.9753	0.025998
703.6729	0.026061
704.3705	0.025829
705.0682	0.021232
705.7660	0.022159
706.4638	0.026630
707.1618	0.032177
707.8599	0.032746
708.5580	0.033294
709.2562	0.028697
709.9545	0.030005
710.6529	0.029330
711.3514	0.026820
712.0500	0.024353
712.7486	0.025217
713.4474	0.028107
714.1462	0.029245
714.8451	0.027305
715.5441	0.028085
716.2432	0.026968
716.9424	0.025154
717.6416	0.024817
718.3410	0.024943
719.0404	0.024500
719.7399	0.025513
720.4395	0.023931
721.1392	0.025850
721.8390	0.026883
722.5388	0.025660
723.2388	0.021801
723.9388	0.024732
724.6389	0.023783
725.3391	0.027136
726.0394	0.028992
726.7398	0.028718
727.4403	0.026567
728.1408	0.028929
728.8414	0.026926
729.5421	0.032198
730.2429	0.032915
730.9438	0.036837
731.6448	0.037428
732.3458	0.036078
733.0470	0.037280
733.7482	0.041097
734.4495	0.043333
735.1509	0.041182
735.8524	0.042953
736.5539	0.041055
737.2556	0.043860
737.9573	0.035741
738.6591	0.036479
739.3610	0.041013
740.0630	0.037871
740.7651	0.032831
741.4672	0.028339
742.1695	0.030258
742.8718	0.031354
743.5742	0.026694
744.2767	0.025407
744.9792	0.025513
745.6819	0.024690
746.3846	0.025260
747.0874	0.024796
747.7903	0.026504
748.4933	0.024627
749.1964	0.027432
749.8995	0.031945
750.6028	0.035108
751.3061	0.034897
752.0095	0.033526
752.7130	0.031987
753.4166	0.033316
754.1202	0.037681
754.8239	0.033758
755.5278	0.036859
756.2317	0.041013
756.9356	0.042447
757.6397	0.052001
758.3438	0.048078
759.0481	0.046686
759.7524	0.053076
760.4568	0.055459
761.1613	0.054426
761.8658	0.046454
762.5705	0.040844
763.2752	0.041498
763.9800	0.043628
764.6849	0.048964
765.3898	0.049470
766.0949	0.042236
766.8000	0.035762
767.5052	0.030068
768.2105	0.039347
768.9159	0.043122
769.6214	0.040739
770.3269	0.037344
771.0325	0.042257
771.7382	0.039157
772.4440	0.034454
773.1499	0.034286
773.8558	0.032345
774.5618	0.029034
775.2679	0.028339
775.9741	0.023488
776.6804	0.024585
777.3868	0.022391
778.0932	0.022750
778.7997	0.024669
779.5063	0.028212
780.2130	0.026609
780.9197	0.028085
781.6265	0.029456
782.3335	0.028992
783.0405	0.028971
783.7475	0.029583
784.4547	0.027390
785.1619	0.025934
785.8692	0.025576
786.5766	0.025196
787.2841	0.023551
787.9917	0.026356
788.6993	0.026272
789.4070	0.026883
790.1148	0.025829
790.8227	0.021463
791.5306	0.022117
792.2387	0.020072
792.9468	0.019565
793.6550	0.020430
794.3632	0.029330
795.0716	0.027390
795.7800	0.024564
796.4885	0.023172
797.1971	0.018553
797.9058	0.020008
798.6145	0.020367
799.3233	0.020662
800.0322	0.017541
800.7412	0.018912
801.4503	0.015875
802.1594	0.014146
802.8686	0.014588
803.5779	0.014504
804.2873	0.014314
804.9968	0.015116
805.7063	0.017225
806.4159	0.020430
807.1256	0.021738
807.8354	0.020198
808.5452	0.019165
809.2551	0.020704
809.9651	0.017752
810.6752	0.017520
811.3853	0.017309
812.0956	0.014736
812.8059	0.014356
813.5163	0.014820
814.2267	0.017203
814.9373	0.015875
815.6479	0.013133
816.3586	0.011847
817.0694	0.013260
817.7802	0.012965
818.4912	0.013977
819.2022	0.012163
819.9133	0.009822
820.6244	0.012290
821.3357	0.012901
822.0470	0.012100
822.7584	0.012121
823.4698	0.010771
824.1814	0.009190
824.8930	0.010539
825.6047	0.010328
826.3165	0.008367
827.0283	0.010708
827.7402	0.012965
828.4522	0.010729
829.1643	0.012437
829.8765	0.011003
830.5887	0.008473
831.3010	0.009464
832.0134	0.006722
832.7259	0.008135
833.4384	0.007777
834.1510	0.008262
834.8637	0.009042
835.5765	0.010476
836.2893	0.006785
837.0022	0.007249
837.7152	0.007207
838.4283	0.005689
839.1414	0.005984
839.8546	0.008135
840.5679	0.006828
841.2813	0.005246
841.9947	0.005731
842.7082	0.005119
843.4218	0.005035
844.1355	0.004930
844.8492	0.004866
845.5631	0.005056
846.2770	0.004824
846.9909	0.005731
847.7050	0.004339
848.4191	0.003496
849.1333	0.005394
849.8475	0.005077
850.5619	0.004023
851.2763	0.004571
851.9908	0.005731
852.7053	0.006532
853.4200	0.012311
854.1347	0.012817
854.8495	0.013049
855.5643	0.012205
856.2792	0.010497
856.9942	0.011045
857.7093	0.008599
858.4245	0.009422
859.1397	0.008030
859.8550	0.008198
860.5704	0.005626
861.2858	0.006764
862.0013	0.006406
862.7169	0.006195
863.4326	0.004592
864.1483	0.005035
864.8642	0.004930
865.5800	0.005562
866.2960	0.004191
867.0120	0.004529
867.7281	0.005731
868.4443	0.005921
869.1606	0.003728
869.8769	0.005372
870.5933	0.004466
871.3097	0.007460
872.0263	0.005119
872.7429	0.005372
873.4596	0.004234
874.1763	0.005963
874.8932	0.005246
875.6101	0.005626
876.3270	0.006617
877.0441	0.005162
877.7612	0.006174
878.4784	0.006174
879.1957	0.005330
879.9130	0.007165
880.6304	0.006216
881.3479	0.005815
882.0654	0.006511
882.7831	0.005499
883.5007	0.006406
884.2185	0.004993
884.9363	0.004423
885.6542	0.006385
886.3722	0.005710
887.0903	0.005541
887.8084	0.005921
888.5266	0.003833
889.2448	0.004276
889.9632	0.004824
890.6816	0.006195
891.4001	0.004550
892.1186	0.006132
892.8372	0.004170
893.5559	0.004972
894.2747	0.002420
894.9935	0.004445
895.7124	0.003601
896.4314	0.005098
897.1504	0.004866
897.8695	0.004466
898.5887	0.005246
899.3079	0.003137
900.0272	0.002357
900.7466	0.004803
901.4661	0.005140
902.1856	0.003706
902.9052	0.003517
903.6249	0.004592
904.3446	0.004360
905.0644	0.003411
905.7843	0.003791
906.5043	0.004381
907.2243	0.003601
907.9444	0.003285
908.6645	0.004487
909.3847	0.005478
910.1050	0.003179
910.8254	0.003896
911.5458	0.003348
912.2663	0.003010
912.9869	0.002926
913.7075	0.004297
914.4283	0.003137
915.1490	0.002905
915.8699	0.004761
916.5908	0.004086
917.3118	0.004655
918.0328	0.002842
918.7539	0.003285
919.4751	0.004803
920.1964	0.004423
920.9177	0.003200
921.6391	0.002694
922.3606	0.003685
923.0821	0.002272
923.8037	0.001281
924.5254	0.003749
925.2471	0.002167
925.9689	0.001134
926.6908	0.002336
927.4127	0.002905
928.1347	0.001218
928.8568	0.001598
929.5789	0.002378
930.3011	0.003242
931.0234	0.003179
931.7457	0.001028
932.4681	0.001576
933.1906	0.001218
933.9131	0.002293
934.6358	0.002083
935.3584	0.003221
936.0812	0.001366
936.8040	0.002272
937.5269	0.001028
938.2498	0.000311
938.9728	0.001935
939.6959	0.000058
940.4190	0.002040
941.1422	0.001239
941.8655	0.001893
942.5889	0.000142
943.3123	0.001281
944.0357	0.001703
944.7593	0.001344
945.4829	0.001914
946.2066	0.002083
946.9303	0.000543
947.6541	-0.000448
948.3780	0.000902
949.1019	0.001091
949.8259	0.000859
950.5500	0.001239
951.2741	0.001956
951.9983	0.000944
952.7226	0.001555
953.4469	0.001387
954.1713	0.001197
954.8958	0.001028
955.6203	0.000163
956.3449	0.000902
957.0696	0.000648
957.7943	0.001808
958.5191	0.000944
959.2439	0.001576
959.9688	0.000311
960.6938	-0.000047
961.4189	0.000269
962.1440	0.001323
962.8692	0.000395
963.5944	0.000627
964.3197	0.000648
965.0451	0.000986
965.7705	0.000100
966.4960	-0.000090
967.2216	0.001323
967.9472	0.000142
968.6729	0.000627
969.3987	-0.000132
970.1245	0.001176
970.8504	0.002019
971.5763	0.000627
972.3023	0.000501
973.0284	0.001576
973.7545	0.001197
974.4807	0.001344
975.2070	0.001049
975.9333	0.000986
976.6597	0.001049
977.3862	0.002061
978.1127	0.001492
978.8393	0.001555
979.5659	0.001429
980.2926	0.001450
981.0194	0.000353
981.7462	0.001429
982.4731	0.000353
983.2001	0.000775
983.9271	0.000311
984.6542	0.000754
985.3814	0.001239
986.1086	0.000522
986.8358	0.000121
987.5632	0.001344
988.2906	0.000859
989.0180	0.001155
989.7456	0.000564
990.4732	0.001682
991.2008	0.001387
991.9285	0.000880
992.6563	0.001155
993.3841	0.000543
994.1120	0.001576
994.8400	0.000395
995.5680	0.001555
996.2961	0.000691
997.0242	0.000838
997.7524	0.002462
998.4807	-0.000996
999.2090	0.001703
999.9374	-0.000343
1000.67	-0.000111
1001.39	0.000670
1002.12	0.000880
1002.85	-0.000490
1003.58	0.000880
1004.31	0.000670
1005.04	0.001218
1005.77	0.000395
1006.5	0.001766
1007.22	0.000691
1007.95	0.001197
1008.68	-0.000090
1009.41	0.000206
1010.14	0.000417
1010.87	0.001429
1011.6	0.000142
1012.33	0.002209
1013.06	0.001091
1013.79	0.000712
1014.52	0.000691
1015.25	-0.000047
1015.98	0.001661
1016.71	0.001112
1017.44	-0.000195
1018.17	0.000775
1018.9	0.001155
1019.63	0.000648
1020.36	0.000079
1021.09	0.001176
1021.82	0.000290
1022.55	-0.000090
1023.03	0.000417