File: Auto_Polymerization/Data/UV_VIS_Spectra/MRG-061-F5_spectra_while_stopped_with_alu_foil/spectrum_2025-06-20_10-02-56_absorbance.txt
# Wavelength	Absorbance
197.78 2.878522
198.392 2.682145
199.004 2.918555
199.617 2.768638
200.229 2.463893
200.842 2.902003
201.455 3.220892
202.067 2.760422
202.68 -0.078966
203.294 2.745075
203.907 -0.599667
204.52 3.062958
205.134 0.486317
205.748 2.682145
206.361 -2.444045
206.975 -0.447473
207.589 -2.741939
208.204 3.152288
208.818 -0.087654
209.433 0.278539
210.047 2.798651
210.662 3.055378
211.277 2.907949
211.892 2.480007
212.507 0.734112
213.122 0.258832
213.738 0.036036
214.353 -2.725095
214.969 -0.092033
215.585 2.846955
216.201 0.570652
216.817 2.833784
217.433 2.536558
218.049 0.000000
218.666 3.186674
219.282 0.847003
219.899 0.339245
220.516 0.000000
221.133 0.231757
221.75 0.365329
222.368 -0.204650
222.985 0.000000
223.603 0.396929
224.22 2.333447
224.838 0.261011
225.456 -0.296177
226.074 0.595031
226.692 0.000000
227.311 3.111934
227.929 3.252853
228.548 0.400656
229.167 0.000000
229.786 2.791691
230.405 1.963788
231.024 0.852995
231.643 2.718502
232.262 1.242696
232.882 2.599883
233.501 2.902003
234.121 -1.944483
234.741 0.339450
235.361 3.122544
235.982 2.562293
236.602 0.000000
237.222 2.853698
237.843 1.851258
238.464 3.063333
239.084 -2.939020
239.706 2.643453
240.327 -0.459976
240.948 0.514668
241.569 -0.336959
242.191 1.380751
242.812 2.587711
243.434 0.171345
244.056 -2.235528
244.678 -0.094244
245.3 2.357935
245.923 3.026125
246.545 2.396199
247.167 0.682619
247.79 -0.973128
248.413 -0.291614
249.036 0.447401
249.659 1.155141
250.282 3.189490
250.906 -0.651612
251.529 2.008600
252.153 0.264693
252.776 2.397940
253.4 2.935003
254.024 2.872739
254.648 -0.180013
255.273 3.097604
255.897 -0.181726
256.521 -0.004501
257.146 -0.139784
257.771 -2.707570
258.396 3.082785
259.021 3.026125
259.646 3.198382
260.271 0.958418
260.897 3.252853
261.522 3.142702
262.148 0.875951
262.774 2.907411
263.399 0.874387
264.026 2.396199
264.652 0.055817
265.278 2.990339
265.904 0.208912
266.531 2.294466
267.158 0.474862
267.784 2.550228
268.411 3.021603
269.038 2.123852
269.666 0.071356
270.293 -2.332438
270.921 -0.208003
271.548 2.691965
272.176 0.132724
272.804 0.296508
273.432 1.051301
274.06 1.119886
274.688 0.255159
275.316 3.055378
275.945 2.965672
276.573 2.840106
277.202 3.047275
277.831 3.118595
278.46 2.935507
279.089 0.062556
279.718 0.714061
280.348 2.632457
280.977 0.242747
281.607 0.000000
282.237 0.459332
282.866 0.162281
283.497 3.030600
284.127 0.845098
284.757 3.025715
285.387 0.000000
286.018 3.294246
286.648 0.057992
287.279 -0.047361
287.91 2.621176
288.541 1.955014
289.172 -2.650308
289.803 -2.235528
290.435 0.000000
291.067 0.387973
291.698 2.768638
292.33 0.114573
292.962 -0.602060
293.594 2.994757
294.226 0.000000
294.858 0.105401
295.491 -2.988559
296.123 0.473941
296.756 3.220892
297.389 2.935003
298.022 -0.056797
298.654 3.177536
299.288 0.000000
299.921 0.192730
300.554 2.769377
301.188 0.396917
301.822 3.364739
302.455 0.812047
303.089 2.357935
303.723 0.079181
304.357 -0.125739
304.992 2.784617
305.626 2.294466
306.261 3.051153
306.895 2.575188
307.53 3.165244
308.165 0.000000
308.8 3.034227
309.435 2.450249
310.07 -0.002574
310.706 3.168203
311.341 3.296446
311.977 0.810264
312.613 3.012837
313.249 3.332034
313.885 3.086360
314.521 -0.040057
315.157 0.830105
315.793 2.653213
316.43 1.049503
317.067 3.463445
317.703 0.892215
318.34 3.097604
318.977 0.305973
319.614 0.739869
320.252 0.595842
320.889 2.465383
321.526 3.516800
322.164 3.132580
322.802 1.501693
323.44 3.437433
324.078 1.613626
324.716 0.674060
325.354 3.583765
325.992 3.314710
326.631 0.952085
327.269 2.814913
327.908 0.302379
328.547 3.636688
329.186 3.564311
329.825 1.822396
330.464 3.658298
331.104 0.722329
331.743 0.480075
332.383 0.454923
333.022 3.595606
333.662 3.609381
334.302 1.330587
334.942 1.068247
335.582 0.582833
336.223 3.666237
336.863 0.565127
337.504 0.882517
338.144 0.831647
338.785 3.703205
339.426 3.110084
340.067 0.743565
340.708 3.745543
341.349 3.731266
341.991 0.986068
342.632 3.830460
343.274 0.875646
343.916 3.793022
344.558 0.907736
345.2 3.834484
345.842 3.870521
346.484 3.898615
347.126 2.079937
347.769 2.060247
348.411 3.880871
349.054 1.200991
349.697 0.709713
350.34 1.432719
350.983 0.901623
351.626 3.954918
352.27 3.959471
352.913 3.896857
353.557 1.100397
354.2 1.695370
354.844 1.758745
355.488 1.483988
356.132 0.965535
356.776 2.148253
357.421 3.988202
358.065 2.593995
358.709 4.012879
359.354 1.263108
359.999 3.957464
360.644 2.319740
361.289 2.004716
361.934 4.009323
362.579 4.062845
363.224 4.031206
363.87 1.303070
364.515 1.573430
365.161 1.515571
365.807 4.020403
366.453 2.004619
367.099 4.077622
367.745 1.116855
368.392 4.101850
369.038 4.150173
369.685 1.901446
370.331 1.390277
370.978 4.107990
371.625 0.948787
372.272 4.101128
372.919 1.288408
373.566 1.129741
374.214 4.167937
374.861 4.167317
375.509 1.146288
376.156 4.224455
376.804 1.676011
377.452 4.269816
378.1 0.964346
378.748 4.301356
379.397 1.908255
380.045 1.167826
380.694 1.869369
381.342 4.319959
381.991 1.207756
382.64 4.341553
383.289 4.351042
383.938 1.433136
384.587 2.113263
385.237 4.356332
385.886 4.360745
386.536 1.839218
387.186 1.433728
387.836 1.920685
388.485 1.584534
389.135 4.421044
389.786 1.199446
390.436 1.431735
391.086 4.433866
391.737 4.423459
392.387 1.087542
393.038 1.228492
393.689 1.203901
394.34 1.456676
394.991 1.043640
395.642 1.304171
396.294 1.037150
396.945 1.117850
397.597 1.034027
398.248 1.191828
398.9 1.071723
399.552 1.024955
400.204 1.016333
400.856 0.941668
401.509 1.347179
402.161 0.803612
402.813 0.825712
403.466 0.815792
404.119 0.756524
404.772 0.746003
405.425 0.672559
406.078 0.781388
406.731 0.693334
407.384 0.712575
408.038 0.711627
408.691 0.668374
409.345 0.688456
409.998 0.662559
410.652 0.586719
411.306 0.622447
411.961 0.632872
412.615 0.537086
413.269 0.561741
413.923 0.575473
414.578 0.531602
415.233 0.589768
415.887 0.583541
416.542 0.433386
417.197 0.545498
417.852 0.445392
418.508 0.503481
419.163 0.455507
419.818 0.462317
420.474 0.470889
421.13 0.496195
421.786 0.430920
422.442 0.497549
423.098 0.427994
423.754 0.439856
424.41 0.482237
425.066 0.407103
425.723 0.424921
426.379 0.399418
427.036 0.401707
427.693 0.431447
428.35 0.442399
429.007 0.412305
429.664 0.378255
430.321 0.426095
430.979 0.391631
431.636 0.400832
432.294 0.399096
432.952 0.431795
433.609 0.424431
434.267 0.461269
434.925 0.379209
435.584 0.371998
436.242 0.384195
436.9 0.408165
437.559 0.393483
438.217 0.385572
438.876 0.418413
439.535 0.396794
440.194 0.458282
440.853 0.433582
441.512 0.422868
442.171 0.398550
442.831 0.403394
443.49 0.403508
444.15 0.388814
444.81 0.455921
445.469 0.426583
446.129 0.468662
446.789 0.470329
447.45 0.424002
448.11 0.437400
448.77 0.462492
449.431 0.451745
450.091 0.413938
450.752 0.459890
451.413 0.466245
452.074 0.485407
452.735 0.453713
453.396 0.524206
454.057 0.551401
454.719 0.534801
455.38 0.492443
456.042 0.569381
456.704 0.498839
457.365 0.534999
458.027 0.547751
458.689 0.549856
459.352 0.523727
460.014 0.575853
460.676 0.623288
461.339 0.574693
462.001 0.612316
462.664 0.667425
463.327 0.613353
463.99 0.621467
464.653 0.634205
465.316 0.686115
465.979 0.699939
466.642 0.699912
467.306 0.682516
467.97 0.629111
468.633 0.708425
469.297 0.777817
469.961 0.812317
470.625 0.852687
471.289 0.837240
471.953 0.769260
472.618 0.953671
473.282 0.780503
473.947 0.834354
474.611 0.824861
475.276 0.831675
475.941 0.900977
476.606 0.929227
477.271 0.953041
477.936 0.893349
478.602 1.027097
479.267 0.826651
479.933 0.974442
480.598 0.983214
481.264 1.051597
481.93 1.017452
482.596 1.032064
483.262 1.149897
483.928 1.277612
484.594 1.097015
485.261 0.967304
485.927 1.073443
486.594 1.122313
487.26 1.161509
487.927 1.163440
488.594 1.137793
489.261 1.195226
489.928 1.246123
490.596 1.382227
491.263 1.098699
491.93 1.200348
492.598 1.216789
493.266 1.160822
493.933 1.902115
494.601 1.486328
495.269 1.323608
495.937 1.283800
496.606 1.339298
497.274 1.419800
497.942 1.365260
498.611 1.323232
499.279 1.353676
499.948 1.287228
500.617 1.497298
501.286 1.277505
501.955 1.415820
502.624 1.418334
503.293 1.626266
503.963 1.218357
504.632 1.313477
505.302 1.378405
505.972 1.324979
506.641 1.257128
507.311 1.354972
507.981 1.333472
508.651 1.730021
509.322 1.345289
509.992 1.265100
510.662 1.419568
511.333 1.363680
512.004 1.291051
512.674 1.268054
513.345 1.146881
514.016 1.128171
514.687 1.607107
515.358 1.125439
516.029 1.160048
516.701 1.366101
517.372 1.295982
518.044 1.372900
518.716 1.218297
519.387 1.214951
520.059 1.653763
520.731 1.503636
521.403 1.095825
522.076 1.422130
522.748 1.085636
523.42 1.285036
524.093 1.132362
524.765 0.980766
525.438 1.119083
526.111 1.266480
526.784 0.977353
527.457 1.073246
528.13 1.045161
528.803 1.016625
529.476 0.990842
530.15 1.129267
530.823 0.933858
531.497 0.885815
532.171 1.041496
532.845 1.092531
533.519 0.917261
534.193 0.940890
534.867 0.901594
535.541 0.887204
536.216 0.940049
536.89 0.925082
537.564 0.816298
538.239 0.832345
538.914 0.811481
539.589 0.852419
540.264 0.747987
540.939 0.748833
541.614 0.720296
542.289 0.759109
542.965 0.699349
543.64 0.651143
544.316 0.686705
544.991 0.665412
545.667 0.667882
546.343 0.643512
547.019 0.593422
547.695 0.552632
548.371 0.586974
549.048 0.584225
549.724 0.499800
550.401 0.487765
551.077 0.536853
551.754 0.478544
552.431 0.471453
553.108 0.457303
553.785 0.460839
554.462 0.438758
555.139 0.431455
555.816 0.424093
556.494 0.432933
557.171 0.433709
557.849 0.367727
558.527 0.374887
559.204 0.380296
559.882 0.340427
560.56 0.329589
561.238 0.325138
561.917 0.333416
562.595 0.361475
563.273 0.358033
563.952 0.310247
564.63 0.329378
565.309 0.309403
565.988 0.297851
566.667 0.262840
567.346 0.265769
568.025 0.251030
568.704 0.255369
569.384 0.236884
570.063 0.235608
570.742 0.248494
571.422 0.228658
572.102 0.242476
572.782 0.232380
573.462 0.236714
574.141 0.220449
574.822 0.216811
575.502 0.209473
576.182 0.226078
576.863 0.210387
577.543 0.200222
578.224 0.196615
578.904 0.196570
579.585 0.177718
580.266 0.180772
580.947 0.182462
581.628 0.163794
582.309 0.170993
582.991 0.159111
583.672 0.168922
584.354 0.166346
585.035 0.168308
585.717 0.154173
586.399 0.160683
587.08 0.155702
587.762 0.142532
588.444 0.145116
589.127 0.140071
589.809 0.153203
590.491 0.144610
591.174 0.138259
591.856 0.159025
592.539 0.147107
593.222 0.138155
593.905 0.136815
594.587 0.139858
595.27 0.150654
595.954 0.138573
596.637 0.150353
597.32 0.138642
598.004 0.144135
598.687 0.138828
599.371 0.131496
600.055 0.139267
600.738 0.128613
601.422 0.118921
602.106 0.118626
602.79 0.127449
603.475 0.120493
604.159 0.133055
604.843 0.123804
605.528 0.117298
606.212 0.111038
606.897 0.111418
607.582 0.110593
608.267 0.105157
608.952 0.114787
609.637 0.112280
610.322 0.117472
611.007 0.107249
611.693 0.110958
612.378 0.111500
613.064 0.118790
613.749 0.116938
614.435 0.113344
615.121 0.111505
615.807 0.107700
616.493 0.114345
617.179 0.104605
617.865 0.099380
618.552 0.089356
619.238 0.128243
619.924 0.089158
620.611 0.094604
621.298 0.092850
621.985 0.104411
622.671 0.112516
623.358 0.090753
624.045 0.102335
624.733 0.101215
625.42 0.081402
626.107 0.093743
626.795 0.112554
627.482 0.117932
628.17 0.090427
628.858 0.079809
629.545 0.092079
630.233 0.112830
630.921 0.087691
631.609 0.112227
632.298 0.113246
632.986 0.089666
633.674 0.101220
634.363 0.106250
635.051 0.124872
635.74 0.125990
636.429 0.116626
637.118 0.090493
637.807 0.094605
638.496 0.107389
639.185 0.093541
639.874 0.088422
640.563 0.085143
641.253 0.094855
641.942 0.081156
642.632 0.083431
643.322 0.091136
644.011 0.073349
644.701 0.101329
645.391 0.091896
646.081 0.082817
646.771 0.082597
647.462 0.118615
648.152 0.069500
648.842 0.116691
649.533 0.105516
650.224 0.074669
650.914 0.111325
651.605 0.085699
652.296 0.060096
652.987 0.148989
653.678 0.064979
654.369 0.113217
655.061 0.149203
655.752 0.106997
656.443 -0.001453
657.135 0.109290
657.826 0.109468
658.518 0.115582
659.21 0.145381
659.902 0.187947
660.594 0.131645
661.286 0.083639
661.978 0.086811
662.67 0.072993
663.363 0.073936
664.055 0.094487
664.748 0.085980
665.44 0.121476
666.133 0.056273
666.826 0.090771
667.519 0.092717
668.212 0.078380
668.905 0.126047
669.598 0.115815
670.291 0.114663
670.985 0.106850
671.678 0.092775
672.372 0.059788
673.065 0.074410
673.759 0.091122
674.453 0.092496
675.147 0.132997
675.841 0.114507
676.535 0.081492
677.229 0.106137
677.923 0.101616
678.617 0.087371
679.312 0.081277
680.006 0.127259
680.701 0.093588
681.396 0.075476
682.091 0.107745
682.785 0.086012
683.48 0.096512
684.175 0.099075
684.87 0.144987
685.566 0.107414
686.261 0.130898
686.957 0.100042
687.652 0.081387
688.348 0.089654
689.043 0.105594
689.739 0.073417
690.435 0.095791
691.131 0.124946
691.827 0.117272
692.523 0.111464
693.219 0.107546
693.915 0.092305
694.612 0.116044
695.308 0.114391
696.005 0.065337
696.702 0.114917
697.398 0.082662
698.095 0.114820
698.792 0.079214
699.489 0.106226
700.186 0.084755
700.883 0.104623
701.581 0.096035
702.278 0.107026
702.975 0.089787
703.673 0.101291
704.37 0.065228
705.068 0.077790
705.766 0.113922
706.464 0.125535
707.162 0.058381
707.86 0.129107
708.558 0.075402
709.256 0.065372
709.955 0.109060
710.653 0.055830
711.351 0.080155
712.05 0.098089
712.749 0.101240
713.447 0.096356
714.146 0.074900
714.845 0.104657
715.544 0.084271
716.243 0.092683
716.942 0.103271
717.642 0.071751
718.341 0.061078
719.04 0.119418
719.74 0.114205
720.439 0.126431
721.139 0.079640
721.839 0.103991
722.539 0.067883
723.239 0.068652
723.939 0.094474
724.639 0.102057
725.339 0.091710
726.039 0.072769
726.74 0.105590
727.44 0.127995
728.141 0.086435
728.841 0.077414
729.542 0.102411
730.243 0.075559
730.944 0.093613
731.645 0.104464
732.346 0.109815
733.047 0.103362
733.748 0.112329
734.449 0.131531
735.151 0.114476
735.852 0.084318
736.554 0.093461
737.256 0.109756
737.957 0.087956
738.659 0.083342
739.361 0.090378
740.063 0.091733
740.765 0.104227
741.467 0.104273
742.169 0.074126
742.872 0.057715
743.574 0.087038
744.277 0.115036
744.979 0.095713
745.682 0.096583
746.385 0.102160
747.087 0.082418
747.79 0.119066
748.493 0.093942
749.196 0.082984
749.899 0.099107
750.603 0.056839
751.306 0.122745
752.01 0.063060
752.713 0.105055
753.417 0.089268
754.12 0.087873
754.824 0.108878
755.528 0.114361
756.232 0.080809
756.936 0.100070
757.64 0.096568
758.344 0.101261
759.048 0.091345
759.752 0.093728
760.457 0.086131
761.161 0.101643
761.866 0.122189
762.571 0.092777
763.275 0.078264
763.98 0.116924
764.685 0.118877
765.39 0.088602
766.095 0.074160
766.8 0.069874
767.505 0.088257
768.211 0.075397
768.916 0.109612
769.621 0.090401
770.327 0.076698
771.033 0.099559
771.738 0.155094
772.444 0.092596
773.15 0.077194
773.856 0.095622
774.562 0.088456
775.268 0.048494
775.974 0.104214
776.68 0.145907
777.387 0.075784
778.093 0.082113
778.8 0.092931
779.506 0.106452
780.213 0.118253
780.92 0.129291
781.626 0.084854
782.333 0.090710
783.04 0.079431
783.747 0.124531
784.455 0.114891
785.162 0.114100
785.869 0.084596
786.577 0.095084
787.284 0.105170
787.992 0.079178
788.699 0.085588
789.407 0.092600
790.115 0.148564
790.823 0.125757
791.531 0.088926
792.239 0.106465
792.947 0.064511
793.655 0.113823
794.363 0.119896
795.072 0.081230
795.78 0.085370
796.489 0.086216
797.197 0.117872
797.906 0.149103
798.615 0.119605
799.323 0.094864
800.032 0.080251
800.741 0.098639
801.45 0.162009
802.159 0.101479
802.869 0.041769
803.578 0.115138
804.287 0.105677
804.997 0.062850
805.706 0.078676
806.416 0.086238
807.126 0.126835
807.835 0.074605
808.545 0.113690
809.255 0.097592
809.965 0.064596
810.675 0.007671
811.385 0.043622
812.096 0.089870
812.806 0.144635
813.516 0.126203
814.227 0.117789
814.937 0.102190
815.648 0.072695
816.359 0.128135
817.069 0.122414
817.78 0.018806
818.491 0.131173
819.202 0.105256
819.913 0.050010
820.624 0.115598
821.336 0.144587
822.047 0.081751
822.758 0.110293
823.47 0.193178
824.181 0.126583
824.893 0.079837
825.605 0.087631
826.317 0.179876
827.028 0.135982
827.74 0.132302
828.452 0.154108
829.164 0.038051
829.876 0.091578
830.589 0.169785
831.301 0.130122
832.013 0.040337
832.726 0.170516
833.438 0.107964
834.151 0.142638
834.864 0.238874
835.577 0.127058
836.289 0.267249
837.002 0.260385
837.715 0.050760
838.428 0.024328
839.141 0.065061
839.855 0.176555
840.568 0.205077
841.281 0.168004
841.995 0.063836
842.708 0.054638
843.422 0.242117
844.135 0.258294
844.849 0.263799
845.563 0.100255
846.277 0.208884
846.991 0.154507
847.705 0.176051
848.419 0.191107
849.133 0.073908
849.847 0.324572
850.562 0.036737
851.276 0.380084
851.991 0.117746
852.705 0.003738
853.42 0.069973
854.135 0.087212
854.85 0.146540
855.564 0.099805
856.279 0.164126
856.994 0.054759
857.709 0.103334
858.424 0.073730
859.14 0.132414
859.855 0.064824
860.57 0.208468
861.286 0.121679
862.001 -0.007291
862.717 0.078902
863.433 0.096500
864.148 0.031998
864.864 0.108946
865.58 0.156203
866.296 0.110238
867.012 0.211138
867.728 0.105122
868.444 0.098441
869.161 0.081771
869.877 0.272633
870.593 0.134724
871.31 0.242504
872.026 0.179142
872.743 0.180578
873.46 0.301533
874.176 0.106964
874.893 0.224743
875.61 0.253763
876.327 0.326408
877.044 -0.020171
877.761 0.167138
878.478 0.139689
879.196 0.204356
879.913 0.056697
880.63 0.107163
881.348 0.053901
882.065 0.107910
882.783 0.233498
883.501 0.241047
884.218 0.272028
884.936 0.151005
885.654 0.246573
886.372 0.132176
887.09 0.002948
887.808 0.231824
888.527 0.300860
889.245 0.292280
889.963 0.139473
890.682 0.089706
891.4 0.234520
892.119 0.113386
892.837 0.213978
893.556 0.122833
894.275 0.187963
894.994 0.346260
895.712 0.207815
896.431 -0.061021
897.15 0.101897
897.87 0.186516
898.589 0.216173
899.308 0.081293
900.027 -0.077203
900.747 0.171527
901.466 0.136721
902.186 0.209280
902.905 0.159155
903.625 0.600408
904.345 0.173978
905.064 0.354480
905.784 0.216903
906.504 0.184436
907.224 0.185790
907.944 0.124279
908.664 0.108407
909.385 0.475280
910.105 0.515619
910.825 0.220882
911.546 0.327541
912.266 0.056023
912.987 0.218168
913.707 0.170172
914.428 0.095068
915.149 -0.071423
915.87 0.121259
916.591 -0.026603
917.312 0.065856
918.033 0.101276
918.754 0.265714
919.475 0.173836
920.196 0.115411
920.918 0.314766
921.639 0.323815
922.361 0.125048
923.082 0.000272
923.804 0.046901
924.525 0.105885
925.247 0.067223
925.969 0.183047
926.691 0.323938
927.413 0.331554
928.135 0.297370
928.857 0.094481
929.579 0.445262
930.301 0.437557
931.023 0.202967
931.746 0.896352
932.468 0.177270
933.191 0.434232
933.913 0.054908
934.636 0.593087
935.358 0.900940
936.081 0.472667
936.804 0.388838
937.527 1.356547
938.25 0.594799
938.973 0.151959
939.696 0.448671
940.419 0.226565
941.142 2.913814
941.865 0.313371
942.589 1.138910
943.312 0.155049
944.036 0.864129
944.759 0.174157
945.483 0.072466
946.207 0.410992
946.93 -0.221540
947.654 0.273887
948.378 2.902547
949.102 3.220892
949.826 3.104828
950.55 0.446037
951.274 0.169014
951.998 3.245019
952.723 0.105487
953.447 0.018424
954.171 -1.157544
954.896 -0.210139
955.62 0.106946
956.345 3.192289
957.07 0.734632
957.794 0.001042
958.519 0.715873
959.244 -0.236019
959.969 0.545643
960.694 2.919078
961.419 2.653213
962.144 2.673021
962.869 0.483803
963.594 0.929816
964.32 3.145818
965.045 0.156380
965.77 -0.281977
966.496 -0.394345
967.222 2.833784
967.947 2.859739
968.673 -0.014264
969.399 0.038591
970.125 -0.132382
970.85 0.177363
971.576 2.598791
972.302 3.275081
973.028 1.808886
973.755 0.136303
974.481 -0.425741
975.207 3.215373
975.933 0.378027
976.66 0.066588
977.386 -0.112860
978.113 -0.221122
978.839 3.206826
979.566 2.663701
980.293 3.008600
981.019 2.752816
981.746 -0.440459
982.473 0.110860
983.2 2.990339
983.927 2.890421
984.654 2.760422
985.381 0.896731
986.109 0.000000
986.836 3.142702
987.563 2.700704
988.291 -0.297624
989.018 3.115278
989.746 -0.161706
990.473 2.935507
991.201 -0.100023
991.928 0.000000
992.656 3.161667
993.384 -0.036444
994.112 2.806180
994.84 0.000000
995.568 -0.219008
996.296 2.827369
997.024 2.049218
997.752 2.768638
998.481 2.890421
999.209 -2.607455
999.937 -0.455723
1000.67 2.907949
1001.39 2.745075
1002.12 2.840106
1002.85 2.913284
1003.58 -2.758155
1004.31 0.069024
1005.04 3.129368
1005.77 0.278754
1006.5 0.123604
1007.22 2.653213
1007.95 0.080175
1008.68 2.691965
1009.41 -2.689309
1010.14 -0.125739
1010.87 0.423305
1011.6 1.591065
1012.33 2.907411
1013.06 0.000000
1013.79 0.383132
1014.52 0.656817
1015.25 2.940516
1015.98 2.450249
1016.71 0.076388
1017.44 0.229854
1018.17 0.561479
1018.9 3.021603
1019.63 -0.046972
1020.36 2.575188
1021.09 3.287130
1021.82 0.000000
1022.55 1.239245
1023.03 2.812913