File: Auto_Polymerization/Data/UV_VIS_Spectra/MRG-061-F5_spectra_while_stopped_with_alu_foil/spectrum_2025-06-20_09-57-49.txt
# Wavelength (nm)	Intensity (a.u.)
197.7802	-0.001354
198.3922	0.000250
199.0044	0.001030
199.6168	0.000334
200.2292	-0.000215
200.8418	-0.000109
201.4546	-0.000236
202.0674	-0.000679
202.6805	0.001073
203.2936	-0.000215
203.9069	0.000693
204.5203	0.000461
205.1338	0.001136
205.7475	-0.001185
206.3614	0.001051
206.9753	0.000756
207.5894	-0.000932
208.2036	-0.001607
208.8180	0.001009
209.4325	-0.000130
210.0471	-0.000193
210.6618	-0.000763
211.2767	0.000207
211.8918	0.000587
212.5069	-0.000658
213.1222	-0.000383
213.7376	-0.000215
214.3532	-0.000278
214.9689	0.000313
215.5847	0.000334
216.2007	0.000039
216.8168	0.001051
217.4330	0.000355
218.0494	0.000566
218.6659	0.001262
219.2825	-0.001312
219.8992	-0.000953
220.5161	0.000165
221.1332	0.000229
221.7503	0.000102
222.3676	0.000651
222.9850	0.000060
223.6026	0.000883
224.2203	-0.000679
224.8381	0.000397
225.4561	-0.000088
226.0742	0.001199
226.6924	0.001199
227.3107	-0.000658
227.9292	-0.000805
228.5478	0.000250
229.1666	0.000144
229.7855	0.000313
230.4045	0.001790
231.0236	0.000798
231.6429	-0.000193
232.2623	0.000144
232.8818	0.000566
233.5015	0.000313
234.1213	-0.000215
234.7413	0.000840
235.3613	-0.000025
235.9815	-0.000257
236.6018	0.000060
237.2223	0.001241
237.8429	0.000334
238.4636	0.000355
239.0845	0.000334
239.7055	0.001473
240.3266	0.000250
240.9478	0.001790
241.5692	-0.000109
242.1907	0.000840
242.8124	-0.000025
243.4341	-0.000341
244.0560	0.000440
244.6781	0.000102
245.3002	0.000039
245.9225	-0.000067
246.5449	0.000693
247.1675	0.000207
247.7902	-0.001016
248.4130	0.000102
249.0359	-0.000721
249.6590	0.000355
250.2822	-0.000341
250.9056	-0.000763
251.5290	0.001115
252.1526	0.000123
252.7763	-0.000911
253.4002	0.000123
254.0242	-0.000046
254.6483	-0.000552
255.2725	0.000229
255.8969	0.000355
256.5214	-0.000320
257.1460	0.000165
257.7708	0.000566
258.3957	0.000271
259.0207	0.000207
259.6459	0.000207
260.2711	0.000819
260.8965	0.001136
261.5221	0.001009
262.1477	0.001199
262.7735	0.000545
263.3995	0.000271
264.0255	-0.000088
264.6517	-0.000552
265.2780	0.000672
265.9044	0.000418
266.5310	-0.000489
267.1577	0.001136
267.7845	0.000461
268.4114	0.001790
269.0385	-0.000531
269.6657	0.001389
270.2931	-0.000805
270.9205	0.001473
271.5481	-0.000573
272.1758	0.001642
272.8037	0.000039
273.4316	-0.000151
274.0597	-0.000594
274.6880	-0.000025
275.3163	0.000355
275.9448	0.001305
276.5734	-0.000257
277.2022	0.000672
277.8310	-0.000636
278.4600	0.001030
279.0891	0.000461
279.7184	0.000292
280.3477	0.000123
280.9772	-0.001037
281.6069	0.001769
282.2366	0.000102
282.8665	0.001790
283.4965	0.000018
284.1266	0.000608
284.7569	0.000798
285.3873	-0.000151
286.0178	0.000144
286.6484	-0.000320
287.2792	0.000608
287.9101	0.000693
288.5411	0.002106
289.1723	-0.000046
289.8035	0.000292
290.4349	-0.000362
291.0665	0.000376
291.6981	0.000376
292.3299	-0.000236
292.9618	0.000672
293.5938	0.000672
294.2260	-0.000067
294.8582	0.000756
295.4906	0.000735
296.1232	0.000207
296.7558	-0.000468
297.3886	-0.000130
298.0215	0.001094
298.6545	0.000756
299.2877	0.000207
299.9210	-0.000658
300.5544	-0.000763
301.1879	0.002001
301.8215	0.000144
302.4553	0.001431
303.0892	0.001178
303.7233	0.000608
304.3574	0.001009
304.9917	-0.000594
305.6261	0.000292
306.2606	-0.000468
306.8953	-0.000742
307.5301	0.000397
308.1650	-0.000383
308.8000	-0.001101
309.4351	0.001241
310.0704	-0.000193
310.7058	-0.000067
311.3413	0.002064
311.9770	0.000123
312.6127	-0.000025
313.2486	-0.001037
313.8846	0.001621
314.5208	-0.001122
315.1570	0.000672
315.7934	0.001115
316.4299	-0.000088
317.0666	0.001368
317.7033	-0.001649
318.3402	-0.000067
318.9772	0.001705
319.6143	0.000229
320.2516	0.000587
320.8890	-0.000109
321.5265	-0.000447
322.1641	-0.001164
322.8018	0.000144
323.4397	0.000102
324.0777	0.000482
324.7158	0.000461
325.3540	0.000904
325.9924	0.001051
326.6308	-0.000573
327.2694	-0.001058
327.9082	-0.000151
328.5470	0.000608
329.1860	0.000629
329.8251	-0.000700
330.4643	0.001305
331.1036	0.000503
331.7431	-0.000362
332.3826	-0.000383
333.0223	0.000482
333.6622	-0.000004
334.3021	0.000651
334.9422	-0.000193
335.5823	0.001051
336.2227	-0.000742
336.8631	-0.000130
337.5036	0.000482
338.1443	0.001094
338.7851	0.000482
339.4260	0.001157
340.0670	-0.000615
340.7082	0.001769
341.3495	0.000629
341.9909	0.000840
342.6324	0.000503
343.2740	-0.000172
343.9158	0.000819
344.5577	0.000524
345.1997	0.000186
345.8418	-0.000594
346.4840	0.001094
347.1264	0.000207
347.7689	-0.000869
348.4115	0.001178
349.0542	0.000608
349.6971	0.000144
350.3400	0.000292
350.9831	0.001115
351.6263	-0.000890
352.2696	0.001136
352.9131	0.000967
353.5566	-0.000721
354.2003	-0.000594
354.8441	0.000081
355.4881	-0.000383
356.1321	0.002149
356.7763	0.001051
357.4206	0.000946
358.0650	0.000165
358.7095	-0.000404
359.3541	-0.000826
359.9989	0.001558
360.6438	0.000207
361.2888	0.000629
361.9339	-0.000679
362.5791	-0.000172
363.2245	-0.000067
363.8699	-0.000510
364.5155	0.000123
365.1612	0.001051
365.8071	0.000376
366.4530	0.001073
367.0991	0.000756
367.7453	-0.000088
368.3916	-0.000004
369.0380	0.000144
369.6845	-0.001080
370.3312	0.000693
370.9780	0.001621
371.6249	0.001368
372.2719	-0.000362
372.9190	0.000714
373.5663	-0.000573
374.2136	0.001136
374.8611	-0.000215
375.5087	0.000334
376.1564	-0.000658
376.8043	0.001368
377.4522	0.000904
378.1003	-0.000004
378.7485	-0.000847
379.3968	0.001136
380.0452	-0.000573
380.6938	-0.001143
381.3424	-0.000700
381.9912	-0.001080
382.6401	-0.000721
383.2891	0.000018
383.9382	0.000862
384.5875	0.000292
385.2368	0.000587
385.8863	-0.000151
386.5359	-0.000383
387.1856	0.000714
387.8355	-0.000510
388.4854	0.001473
389.1355	0.000672
389.7856	0.000334
390.4359	-0.000299
391.0863	0.001389
391.7369	0.002760
392.3875	0.001579
393.0383	0.003035
393.6891	0.002444
394.3401	0.001916
394.9912	0.002317
395.6425	0.002022
396.2938	0.003309
396.9453	0.003182
397.5968	0.003077
398.2485	0.003689
398.9003	0.004364
399.5522	0.003203
400.2043	0.004322
400.8564	0.004237
401.5087	0.006199
402.1610	0.003393
402.8135	0.005060
403.4661	0.005820
404.1189	0.005904
404.7717	0.006537
405.4246	0.007149
406.0777	0.007486
406.7309	0.006853
407.3842	0.008499
408.0376	0.008140
408.6911	0.007634
409.3448	0.009217
409.9985	0.008478
410.6524	0.009427
411.3064	0.009533
411.9605	0.009997
412.6147	0.010398
413.2690	0.011073
413.9234	0.011432
414.5780	0.011369
415.2326	0.013584
415.8874	0.010145
416.5423	0.013373
417.1973	0.011326
417.8524	0.009871
418.5077	0.012782
419.1630	0.011242
419.8185	0.013267
420.4741	0.015989
421.1298	0.012592
421.7856	0.016854
422.4415	0.016728
423.0975	0.016200
423.7536	0.015398
424.4099	0.016031
425.0663	0.015103
425.7228	0.015630
426.3793	0.015166
427.0361	0.014154
427.6929	0.016791
428.3498	0.016284
429.0068	0.015377
429.6640	0.019449
430.3213	0.021222
430.9787	0.019850
431.6362	0.018268
432.2938	0.018183
432.9515	0.016939
433.6093	0.018542
434.2673	0.019069
434.9253	0.016896
435.5835	0.018985
436.2418	0.017867
436.9001	0.018268
437.5586	0.017614
438.2173	0.018141
438.8760	0.018816
439.5348	0.017951
440.1938	0.018099
440.8528	0.016833
441.5120	0.022361
442.1713	0.020335
442.8307	0.018964
443.4902	0.021601
444.1498	0.019787
444.8095	0.020356
445.4694	0.022044
446.1293	0.020082
446.7894	0.019175
447.4496	0.019850
448.1098	0.018732
448.7702	0.017107
449.4307	0.019745
450.0914	0.017318
450.7521	0.018373
451.4129	0.016095
452.0739	0.016432
452.7349	0.017002
453.3961	0.016263
454.0574	0.015905
454.7188	0.013753
455.3803	0.013964
456.0419	0.016453
456.7036	0.015019
457.3654	0.014154
458.0274	0.014449
458.6894	0.014955
459.3516	0.014681
460.0138	0.012909
460.6762	0.014111
461.3387	0.013246
462.0013	0.011917
462.6640	0.010651
463.3268	0.013267
463.9897	0.013689
464.6528	0.013099
465.3159	0.012824
465.9792	0.013078
466.6425	0.011158
467.3060	0.010187
467.9696	0.009027
468.6333	0.009849
469.2970	0.008204
469.9610	0.008246
470.6250	0.006853
471.2891	0.006896
471.9533	0.006453
472.6177	0.007697
473.2821	0.006010
473.9467	0.005862
474.6113	0.007043
475.2761	0.006579
475.9410	0.006073
476.6060	0.007339
477.2711	0.005735
477.9363	0.006199
478.6016	0.005461
479.2670	0.007170
479.9325	0.004997
480.5982	0.006832
481.2639	0.006495
481.9298	0.005018
482.5957	0.005461
483.2618	0.004891
483.9280	0.004216
484.5943	0.004934
485.2606	0.005166
485.9271	0.016242
486.5937	0.009111
487.2605	0.008858
487.9273	0.004005
488.5942	0.004237
489.2612	0.003710
489.9284	0.004301
490.5956	0.003436
491.2630	0.002402
491.9304	0.002929
492.5980	0.003858
493.2657	0.003731
493.9334	0.003752
494.6013	0.002803
495.2693	0.001494
495.9374	0.000925
496.6056	0.003836
497.2739	0.002296
497.9423	0.001705
498.6109	0.002760
499.2795	0.002676
499.9482	0.003351
500.6171	0.002001
501.2860	0.001853
501.9551	0.002950
502.6242	0.002781
503.2935	0.002212
503.9628	0.002887
504.6323	0.003710
505.3019	0.002275
505.9716	0.001938
506.6414	0.002739
507.3113	0.001262
507.9813	0.002360
508.6514	0.002908
509.3216	0.002866
509.9919	0.002022
510.6623	0.002908
511.3329	0.003815
512.0035	0.002570
512.6742	0.002908
513.3451	0.000313
514.0160	0.003794
514.6871	0.002402
515.3582	0.002360
516.0295	0.002781
516.7008	0.002655
517.3723	0.001452
518.0439	0.001305
518.7155	0.001600
519.3873	0.001642
520.0592	0.003140
520.7312	0.002549
521.4033	0.002423
522.0755	0.002296
522.7478	0.002317
523.4202	0.001642
524.0927	0.003583
524.7653	0.003077
525.4380	0.003752
526.1108	0.002360
526.7837	0.002697
527.4568	0.004638
528.1299	0.004174
528.8031	0.003752
529.4765	0.004216
530.1499	0.003836
530.8234	0.003499
531.4971	0.003267
532.1708	0.003921
532.8447	0.004617
533.5186	0.005988
534.1927	0.005461
534.8668	0.005630
535.5411	0.005862
536.2155	0.006537
536.8899	0.007297
537.5645	0.006389
538.2392	0.007001
538.9139	0.007064
539.5888	0.007529
540.2638	0.008520
540.9389	0.008731
541.6140	0.008035
542.2893	0.010968
542.9647	0.010989
543.6402	0.008773
544.3158	0.011791
544.9915	0.011495
545.6673	0.013289
546.3432	0.011284
547.0192	0.011136
547.6953	0.014196
548.3715	0.016052
549.0478	0.014576
549.7242	0.014386
550.4007	0.012972
551.0773	0.012255
551.7540	0.015588
552.4308	0.018880
553.1077	0.017255
553.7847	0.018331
554.4618	0.017466
555.1390	0.017424
555.8163	0.019449
556.4937	0.021517
557.1712	0.020947
557.8488	0.021433
558.5266	0.019534
559.2044	0.019956
559.8823	0.022466
560.5603	0.024555
561.2384	0.027846
561.9166	0.025294
562.5949	0.026391
563.2733	0.028353
563.9519	0.029070
564.6305	0.029577
565.3092	0.031370
565.9880	0.031475
566.6669	0.032362
567.3459	0.040168
568.0250	0.044261
568.7043	0.051603
569.3836	0.062996
570.0630	0.078989
570.7425	0.084496
571.4221	0.098885
572.1018	0.106797
572.7816	0.095425
573.4615	0.108084
574.1415	0.123655
574.8216	0.133191
575.5018	0.136820
576.1821	0.124266
576.8626	0.141061
577.5431	0.154944
578.2237	0.192457
578.9044	0.159016
579.5851	0.158657
580.2660	0.161653
580.9470	0.161041
581.6281	0.253030
582.3093	0.243979
582.9906	0.189756
583.6720	0.151167
584.3535	0.153382
585.0351	0.178574
585.7167	0.187520
586.3985	0.164353
587.0804	0.172160
587.7624	0.178447
588.4445	0.158994
589.1266	0.140639
589.8089	0.128127
590.4913	0.115574
591.1737	0.105700
591.8563	0.102366
592.5389	0.122705
593.2217	0.161336
593.9046	0.155197
594.5875	0.136356
595.2705	0.156526
595.9537	0.137263
596.6369	0.114667
597.3203	0.117220
598.0037	0.115321
598.6872	0.125828
599.3709	0.146335
600.0546	0.146778
600.7384	0.145302
601.4223	0.145871
602.1064	0.135153
602.7905	0.132642
603.4747	0.154036
604.1590	0.140175
604.8434	0.127326
605.5279	0.132052
606.2125	0.135449
606.8972	0.122916
607.5819	0.129857
608.2668	0.119815
608.9518	0.112493
609.6369	0.108021
610.3220	0.121038
611.0073	0.111249
611.6927	0.110130
612.3781	0.105531
613.0637	0.104961
613.7493	0.102788
614.4351	0.104286
615.1209	0.102830
615.8068	0.103653
616.4929	0.091627
617.1790	0.084411
617.8652	0.087703
618.5515	0.081289
619.2379	0.073525
619.9244	0.074073
620.6110	0.078799
621.2977	0.060296
621.9845	0.065064
622.6714	0.069537
623.3584	0.074094
624.0454	0.069579
624.7326	0.074643
625.4199	0.069368
626.1072	0.063186
626.7947	0.058819
627.4822	0.056899
628.1698	0.051941
628.8576	0.046434
629.5454	0.052911
630.2333	0.049093
630.9213	0.048924
631.6094	0.042974
632.2976	0.043480
632.9859	0.038311
633.6743	0.035526
634.3628	0.035547
635.0514	0.031433
635.7400	0.034366
636.4288	0.037066
637.1177	0.037404
637.8066	0.034281
638.4957	0.036328
639.1848	0.034598
639.8740	0.032485
640.5633	0.029623
641.2528	0.028820
641.9423	0.027986
642.6319	0.026467
643.3216	0.024038
644.0113	0.021421
644.7012	0.024178
645.3912	0.023142
646.0812	0.019911
646.7714	0.018720
647.4616	0.019673
648.1520	0.026025
648.8424	0.028314
649.5329	0.027739
650.2236	0.026411
650.9143	0.022295
651.6051	0.022820
652.2960	0.026154
652.9870	0.024768
653.6780	0.027192
654.3692	0.027852
655.0605	0.048697
655.7518	0.793234
656.4433	1.000000
657.1348	0.706006
657.8264	0.430457
658.5181	0.320578
659.2099	0.233255
659.9018	0.058150
660.5938	0.021890
661.2859	0.020338
661.9781	0.018174
662.6704	0.016486
663.3627	0.017936
664.0552	0.017609
664.7477	0.019782
665.4403	0.020382
666.1330	0.020061
666.8259	0.017610
667.5188	0.018651
668.2117	0.017472
668.9048	0.017128
669.5980	0.017656
670.2913	0.018711
670.9846	0.018162
671.6781	0.024028
672.3716	0.028163
673.0652	0.026960
673.7589	0.023078
674.4527	0.023352
675.1466	0.020757
675.8406	0.020926
676.5347	0.020842
677.2288	0.018985
677.9231	0.022825
678.6174	0.026370
679.3119	0.026222
680.0064	0.029302
680.7010	0.029302
681.3957	0.028880
682.0905	0.025821
682.7854	0.025673
683.4803	0.025230
684.1754	0.027889
684.8705	0.031496
685.5658	0.037383
686.2611	0.036370
686.9565	0.036455
687.6520	0.035737
688.3476	0.031623
689.0433	0.028859
689.7390	0.029703
690.4349	0.027973
691.1308	0.030231
691.8269	0.033248
692.5230	0.029239
693.2192	0.031243
693.9155	0.031412
694.6119	0.026834
695.3083	0.028416
696.0049	0.025061
696.7016	0.027509
697.3983	0.034218
698.0951	0.029935
698.7920	0.030737
699.4890	0.028859
700.1861	0.027635
700.8833	0.027171
701.5806	0.023732
702.2779	0.025800
702.9753	0.024555
703.6729	0.023859
704.3705	0.022044
705.0682	0.019829
705.7660	0.019913
706.4638	0.024555
707.1618	0.032551
707.8599	0.031454
708.5580	0.030969
709.2562	0.027762
709.9545	0.027889
710.6529	0.027762
711.3514	0.027003
712.0500	0.023796
712.7486	0.024872
713.4474	0.026095
714.1462	0.027889
714.8451	0.027952
715.5441	0.029133
716.2432	0.025167
716.9424	0.024745
717.6416	0.023015
718.3410	0.024914
719.0404	0.024492
719.7399	0.024829
720.4395	0.023458
721.1392	0.025378
721.8390	0.022509
722.5388	0.023226
723.2388	0.023437
723.9388	0.023015
724.6389	0.021179
725.3391	0.026137
726.0394	0.027256
726.7398	0.025758
727.4403	0.026454
728.1408	0.028733
728.8414	0.027129
729.5421	0.030990
730.2429	0.029450
730.9438	0.035990
731.6448	0.037974
732.3458	0.034028
733.0470	0.035695
733.7482	0.035294
734.4495	0.045232
735.1509	0.040084
735.8524	0.039324
736.5539	0.038902
737.2556	0.041771
737.9573	0.034682
738.6591	0.033248
739.3610	0.037889
740.0630	0.036412
740.7651	0.031961
741.4672	0.028543
742.1695	0.027720
742.8718	0.029366
743.5742	0.024218
744.2767	0.023479
744.9792	0.024260
745.6819	0.023922
746.3846	0.024239
747.0874	0.023943
747.7903	0.027783
748.4933	0.022530
749.1964	0.025188
749.8995	0.028965
750.6028	0.033184
751.3061	0.031096
752.0095	0.034155
752.7130	0.030969
753.4166	0.031475
754.1202	0.033501
754.8239	0.034661
755.5278	0.032214
756.2317	0.036391
756.9356	0.042088
757.6397	0.049937
758.3438	0.048628
759.0481	0.045210
759.7524	0.049093
760.4568	0.049915
761.1613	0.049937
761.8658	0.041265
762.5705	0.040337
763.2752	0.041940
763.9800	0.038923
764.6849	0.045485
765.3898	0.048460
766.0949	0.042341
766.8000	0.034134
767.5052	0.031897
768.2105	0.035125
768.9159	0.039746
769.6214	0.038607
770.3269	0.036223
771.0325	0.039050
771.7382	0.038480
772.4440	0.032024
773.1499	0.032467
773.8558	0.032087
774.5618	0.029766
775.2679	0.024724
775.9741	0.021749
776.6804	0.022973
777.3868	0.019597
778.0932	0.021433
778.7997	0.022931
779.5063	0.025990
780.2130	0.023606
780.9197	0.026137
781.6265	0.026180
782.3335	0.028100
783.0405	0.028163
783.7475	0.027551
784.4547	0.026918
785.1619	0.023563
785.8692	0.023922
786.5766	0.024196
787.2841	0.023985
787.9917	0.024070
788.6993	0.027213
789.4070	0.023943
790.1148	0.022698
790.8227	0.020040
791.5306	0.019618
792.2387	0.020082
792.9468	0.016854
793.6550	0.020525
794.3632	0.026201
795.0716	0.028374
795.7800	0.024471
796.4885	0.017150
797.1971	0.017297
797.9058	0.019323
798.6145	0.017550
799.3233	0.018690
800.0322	0.017150
800.7412	0.015504
801.4503	0.015419
802.1594	0.013626
802.8686	0.014533
803.5779	0.014934
804.2873	0.015335
804.9968	0.014660
805.7063	0.015398
806.4159	0.018774
807.1256	0.019977
807.8354	0.020420
808.5452	0.017951
809.2551	0.018204
809.9651	0.018268
810.6752	0.014365
811.3853	0.015166
812.0956	0.011896
812.8059	0.011833
813.5163	0.013162
814.2267	0.015293
814.9373	0.013204
815.6479	0.011769
816.3586	0.011411
817.0694	0.011833
817.7802	0.011980
818.4912	0.012234
819.2022	0.008773
819.9133	0.010398
820.6244	0.012845
821.3357	0.013668
822.0470	0.011411
822.7584	0.009575
823.4698	0.008858
824.1814	0.010904
824.8930	0.007887
825.6047	0.011200
826.3165	0.008098
827.0283	0.011390
827.7402	0.011495
828.4522	0.011073
829.1643	0.010398
829.8765	0.010145
830.5887	0.008330
831.3010	0.008119
832.0134	0.007381
832.7259	0.008520
833.4384	0.006495
834.1510	0.008605
834.8637	0.008457
835.5765	0.008689
836.2893	0.007761
837.0022	0.006052
837.7152	0.004870
838.4283	0.005482
839.1414	0.004870
839.8546	0.005651
840.5679	0.004554
841.2813	0.004047
841.9947	0.004301
842.7082	0.004575
843.4218	0.003689
844.1355	0.004765
844.8492	0.003858
845.5631	0.004195
846.2770	0.005102
846.9909	0.003963
847.7050	0.005377
848.4191	0.004934
849.1333	0.003604
849.8475	0.004891
850.5619	0.003309
851.2763	0.003689
851.9908	0.005102
852.7053	0.007170
853.4200	0.010904
854.1347	0.011516
854.8495	0.012276
855.5643	0.011242
856.2792	0.010145
856.9942	0.009512
857.7093	0.008710
858.4245	0.007993
859.1397	0.006199
859.8550	0.008605
860.5704	0.006769
861.2858	0.004448
862.0013	0.003984
862.7169	0.004891
863.4326	0.006178
864.1483	0.006010
864.8642	0.005123
865.5800	0.004427
866.2960	0.003668
867.0120	0.005925
867.7281	0.004216
868.4443	0.006157
869.1606	0.002149
869.8769	0.002507
870.5933	0.005060
871.3097	0.006010
872.0263	0.004427
872.7429	0.004849
873.4596	0.003246
874.1763	0.004448
874.8932	0.004216
875.6101	0.005440
876.3270	0.005482
877.0441	0.004301
877.7612	0.004448
878.4784	0.005820
879.1957	0.004891
879.9130	0.007275
880.6304	0.007571
881.3479	0.007170
882.0654	0.005166
882.7831	0.005482
883.5007	0.004765
884.2185	0.004554
884.9363	0.005398
885.6542	0.004427
886.3722	0.004723
887.0903	0.004828
887.8084	0.005419
888.5266	0.003457
889.2448	0.004849
889.9632	0.003225
890.6816	0.004153
891.4001	0.002064
892.1186	0.004111
892.8372	0.004026
893.5559	0.004026
894.2747	0.003414
894.9935	0.003710
895.7124	0.004195
896.4314	0.003267
897.1504	0.004617
897.8695	0.004533
898.5887	0.006199
899.3079	0.003161
900.0272	0.002528
900.7466	0.004364
901.4661	0.003267
902.1856	0.004469
902.9052	0.002887
903.6249	0.003203
904.3446	0.003773
905.0644	0.002191
905.7843	0.004005
906.5043	0.005609
907.2243	0.003921
907.9444	0.005166
908.6645	0.004258
909.3847	0.002634
910.1050	0.002845
910.8254	0.002360
911.5458	0.002507
912.2663	0.003119
912.9869	0.004090
913.7075	0.002444
914.4283	0.002043
915.1490	0.002486
915.8699	0.003710
916.5908	0.002507
917.3118	0.002570
918.0328	0.004343
918.7539	0.002760
919.4751	0.002106
920.1964	0.002866
920.9177	0.004195
921.6391	0.002507
922.3606	0.004132
923.0821	0.003140
923.8037	0.003309
924.5254	0.003309
925.2471	0.001811
925.9689	0.002381
926.6908	0.001347
927.4127	0.002697
928.1347	0.000777
928.8568	0.001853
929.5789	0.002022
930.3011	0.000355
931.0234	0.003035
931.7457	0.001663
932.4681	0.003077
933.1906	0.002402
933.9131	0.001811
934.6358	0.002845
935.3584	0.000102
936.0812	0.001094
936.8040	0.001853
937.5269	0.001853
938.2498	0.000862
938.9728	0.001452
939.6959	0.001347
940.4190	-0.000404
941.1422	0.001157
941.8655	0.002170
942.5889	0.001579
943.3123	0.001642
944.0357	0.000292
944.7593	0.002233
945.4829	0.000524
946.2066	0.001178
946.9303	0.000566
947.6541	0.001073
948.3780	0.000376
949.1019	0.002001
949.8259	0.000418
950.5500	0.000946
951.2741	0.001558
951.9983	-0.000932
952.7226	0.001178
953.4469	0.000756
954.1713	0.000334
954.8958	0.001621
955.6203	0.000904
956.3449	0.000862
957.0696	0.000756
957.7943	0.000292
958.5191	0.000672
959.2439	0.000102
959.9688	0.000081
960.6938	0.000271
961.4189	-0.000425
962.1440	0.002254
962.8692	0.000207
963.5944	-0.000299
964.3197	0.000229
965.0451	0.000461
965.7705	-0.000046
966.4960	0.001115
967.2216	0.000397
967.9472	0.000566
968.6729	0.000608
969.3987	0.000292
970.1245	0.001811
970.8504	-0.000257
971.5763	-0.000383
972.3023	0.000461
973.0284	-0.000109
973.7545	0.001157
974.4807	0.000672
975.2070	0.000397
975.9333	0.000376
976.6597	0.001262
977.3862	-0.000067
978.1127	0.001537
978.8393	0.000060
979.5659	-0.000172
980.2926	0.000545
981.0194	0.001115
981.7462	0.001220
982.4731	-0.000025
983.2001	0.000461
983.9271	0.000081
984.6542	-0.000278
985.3814	0.000735
986.1086	0.002022
986.8358	-0.000004
987.5632	0.000102
988.2906	0.000967
989.0180	-0.000299
989.7456	-0.000489
990.4732	-0.000109
991.2008	0.000397
991.9285	0.001051
992.6563	0.000524
993.3841	-0.000489
994.1120	0.001073
994.8400	0.000629
995.5680	-0.000341
996.2961	0.000946
997.0242	-0.000742
997.7524	-0.000383
998.4807	-0.000172
999.2090	0.001051
999.9374	0.001368
1000.67	0.001073
1001.39	0.000313
1002.12	0.001220
1002.85	-0.000763
1003.58	0.000144
1004.31	-0.000700
1005.04	-0.000067
1005.77	0.001157
1006.5	-0.000172
1007.22	0.001178
1007.95	0.000545
1008.68	-0.000995
1009.41	0.000229
1010.14	0.000819
1010.87	0.000081
1011.6	0.000946
1012.33	0.000250
1013.06	0.000376
1013.79	0.001199
1014.52	-0.000594
1015.25	0.001305
1015.98	0.000777
1016.71	-0.000404
1017.44	-0.000763
1018.17	0.000039
1018.9	0.001094
1019.63	0.001283
1020.36	0.000123
1021.09	-0.000742
1021.82	0.000461
1022.55	-0.000932
1023.03	0.000081