File: Auto_Polymerization/Data/UV_VIS_Spectra/MRG-061-F5_spectra_while_stopped_with_alu_foil/spectrum_2025-06-20_09-22-00_absorbance.txt
# Wavelength	Absorbance
197.78 2.878522
198.392 -0.025425
199.004 0.176615
199.617 -0.169882
200.229 -0.753064
200.842 2.902003
201.455 -0.067581
202.067 2.760422
202.68 0.220988
203.294 0.459517
203.907 -0.669348
204.52 -0.170292
205.134 0.535063
205.748 -0.529242
206.361 -2.758155
206.975 -0.836832
207.589 -2.882525
208.204 3.152288
208.818 2.495544
209.433 0.870522
210.047 -0.440148
210.662 0.057555
211.277 -0.527259
211.892 -0.508106
212.507 -0.186765
213.122 0.062830
213.738 -0.293556
214.353 0.000000
214.969 -0.320431
215.585 2.846955
216.201 -0.311423
216.817 -0.104735
217.433 -0.112776
218.049 0.000000
218.666 -0.046576
219.282 -0.072075
219.899 0.464184
220.516 0.000000
221.133 0.031599
221.75 0.897997
222.368 -0.298104
222.985 -3.073352
223.603 -0.524999
224.22 0.247087
224.838 0.241086
225.456 -0.497851
226.074 -0.284523
226.692 -3.200029
227.311 0.997991
227.929 0.335873
228.548 0.994283
229.167 0.000000
229.786 -0.419697
230.405 -1.206180
231.024 -0.003895
231.643 1.320562
232.262 0.363143
232.882 2.599883
233.501 -0.490870
234.121 0.000000
234.741 3.097604
235.361 3.122544
235.982 2.562293
236.602 -2.037426
237.222 -0.340539
237.843 1.851258
238.464 0.104292
239.084 -3.131298
239.706 -0.414213
240.327 -0.947655
240.948 -0.312209
241.569 2.632457
242.191 0.417951
242.812 -0.691271
243.434 -0.190178
244.056 -3.320354
244.678 -0.233544
245.3 2.357935
245.923 -0.415728
246.545 2.396199
247.167 0.027007
247.79 1.243038
248.413 -0.468894
249.036 0.381265
249.659 0.275587
250.282 0.093276
250.906 -0.561386
251.529 0.064117
252.153 0.201098
252.776 2.397940
253.4 0.328622
254.024 -0.215752
254.648 -0.662308
255.273 -0.176554
255.897 0.851218
256.521 2.827369
257.146 -0.431243
257.771 -2.583199
258.396 0.847257
259.021 0.181647
259.646 0.073878
260.271 -0.496426
260.897 0.303951
261.522 0.368916
262.148 -0.034591
262.774 0.089846
263.399 1.027849
264.026 -0.842599
264.652 0.564850
265.278 0.096023
265.904 0.106374
266.531 0.257040
267.158 -0.032185
267.784 -0.626152
268.411 -0.074612
269.038 -0.854785
269.666 -0.283526
270.293 -1.397940
270.921 -0.154328
271.548 2.089905
272.176 0.649220
272.804 -0.081859
273.432 0.040740
274.06 0.387252
274.688 0.117975
275.316 -0.218780
275.945 -0.332307
276.573 2.840106
277.202 0.049452
277.831 0.559887
278.46 -0.252859
279.089 -0.404249
279.718 0.184279
280.348 -0.316444
280.977 2.872156
281.607 0.000000
282.237 0.897577
282.866 -0.102625
283.497 3.030600
284.127 0.845098
284.757 3.025715
285.387 -3.200029
286.018 0.789096
286.648 2.940516
287.279 -0.226396
287.91 -0.249228
288.541 0.176573
289.172 0.000000
289.803 -2.285557
290.435 -2.905796
291.067 0.263603
291.698 -0.209999
292.33 0.083928
292.962 -2.409933
293.594 -0.426682
294.226 -2.959041
294.858 -0.076247
295.491 0.000000
296.123 2.645668
296.756 -0.053266
297.389 -0.153487
298.022 1.323144
298.654 0.307133
299.288 -3.033021
299.921 0.064549
300.554 -0.479821
301.188 0.176604
301.822 1.966799
302.455 -0.360429
303.089 -0.536381
303.723 -0.445678
304.357 -0.535980
304.992 -0.222276
305.626 -0.622514
306.261 -0.203154
306.895 2.575188
307.53 1.127818
308.165 -2.758155
308.8 -0.069234
309.435 -0.274845
310.07 0.048058
310.706 0.426264
311.341 0.223094
311.977 0.325137
312.613 0.454129
313.249 0.299013
313.885 0.117410
314.521 3.104828
315.157 0.108553
315.793 2.653213
316.43 0.241421
317.067 0.580920
317.703 1.938320
318.34 0.308729
318.977 0.712498
319.614 3.245019
320.252 0.178908
320.889 -0.728854
321.526 0.622484
322.164 0.656909
322.802 0.127738
323.44 0.478392
324.078 0.477121
324.716 0.460635
325.354 1.108094
325.992 0.943642
326.631 0.540102
327.269 0.328483
327.908 0.569875
328.547 0.833231
329.186 0.226852
329.825 0.516204
330.464 0.709396
331.104 1.489042
331.743 0.350629
332.383 0.417415
333.022 0.362356
333.662 0.752048
334.302 0.570552
334.942 1.391428
335.582 0.440850
336.223 1.256304
336.863 0.759073
337.504 1.493121
338.144 1.248283
338.785 1.033888
339.426 0.646565
340.067 0.910158
340.708 0.956668
341.349 2.333326
341.991 1.717222
342.632 0.881559
343.274 3.222976
343.916 1.260267
344.558 1.237494
345.2 3.834484
345.842 0.406180
346.484 0.949714
347.126 0.978128
347.769 1.112535
348.411 3.880871
349.054 3.926085
349.697 1.015839
350.34 1.043553
350.983 0.754063
351.626 3.954918
352.27 1.076946
352.913 1.486924
353.557 1.191256
354.2 3.930898
354.844 1.286703
355.488 0.844564
356.132 0.991042
356.776 0.908748
357.421 0.884740
358.065 1.385553
358.709 0.931892
359.354 0.646570
359.999 0.800007
360.644 1.179040
361.289 4.042142
361.934 0.871337
362.579 0.931547
363.224 4.031206
363.87 1.021271
364.515 4.049102
365.161 1.050502
365.807 1.649335
366.453 0.907175
367.099 1.183306
367.745 0.850332
368.392 4.101850
369.038 1.864616
369.685 1.209091
370.331 0.804706
370.978 1.382895
371.625 0.954963
372.272 4.101128
372.919 0.982291
373.566 1.548256
374.214 1.016874
374.861 1.425378
375.509 4.212241
376.156 1.073392
376.804 4.234720
377.452 1.204237
378.1 1.014467
378.748 1.352454
379.397 4.318189
380.045 4.285760
380.694 1.148004
381.342 1.202357
381.991 1.153255
382.64 1.758354
383.289 1.722653
383.938 1.298079
384.587 0.986686
385.237 1.582545
385.886 1.121946
386.536 1.208215
387.186 1.304458
387.836 1.127077
388.485 1.174873
389.135 1.146886
389.786 1.172569
390.436 1.021839
391.086 0.927631
391.737 0.815789
392.387 0.759285
393.038 0.858610
393.689 0.682519
394.34 0.809244
394.991 0.659048
395.642 0.568499
396.294 0.570831
396.945 0.637894
397.597 0.584852
398.248 0.496289
398.9 0.501488
399.552 0.422266
400.204 0.411561
400.856 0.427389
401.509 0.440115
402.161 0.393001
402.813 0.362581
403.466 0.351456
404.119 0.356056
404.772 0.341707
405.425 0.290312
406.078 0.344830
406.731 0.279713
407.384 0.265466
408.038 0.331158
408.691 0.306314
409.345 0.267228
409.998 0.319047
410.652 0.274501
411.306 0.219682
411.961 0.231995
412.615 0.274695
413.269 0.227870
413.923 0.280941
414.578 0.279772
415.233 0.214913
415.887 0.237087
416.542 0.223512
417.197 0.246774
417.852 0.219924
418.508 0.250810
419.163 0.220324
419.818 0.209723
420.474 0.229732
421.13 0.220100
421.786 0.244545
422.442 0.249154
423.098 0.215953
423.754 0.298523
424.41 0.225546
425.066 0.245815
425.723 0.245607
426.379 0.210050
427.036 0.227648
427.693 0.243721
428.35 0.266308
429.007 0.241192
429.664 0.202579
430.321 0.246056
430.979 0.239271
431.636 0.232884
432.294 0.261920
432.952 0.276534
433.609 0.241601
434.267 0.276408
434.925 0.283430
435.584 0.261134
436.242 0.265600
436.9 0.274157
437.559 0.264129
438.217 0.269204
438.876 0.256126
439.535 0.272396
440.194 0.266171
440.853 0.300927
441.512 0.318393
442.171 0.311861
442.831 0.299972
443.49 0.305408
444.15 0.353956
444.81 0.316073
445.469 0.338256
446.129 0.332227
446.789 0.307554
447.45 0.350924
448.11 0.369809
448.77 0.337987
449.431 0.337247
450.091 0.348550
450.752 0.348656
451.413 0.402677
452.074 0.399515
452.735 0.398495
453.396 0.408712
454.057 0.407415
454.719 0.408184
455.38 0.400056
456.042 0.430224
456.704 0.449454
457.365 0.471541
458.027 0.477367
458.689 0.469500
459.352 0.487546
460.014 0.456694
460.676 0.471348
461.339 0.510093
462.001 0.520724
462.664 0.567810
463.327 0.540563
463.99 0.624126
464.653 0.542870
465.316 0.573894
465.979 0.600348
466.642 0.670511
467.306 0.594134
467.97 0.625513
468.633 0.691761
469.297 0.610156
469.961 0.652833
470.625 0.729761
471.289 0.670233
471.953 0.697491
472.618 0.671340
473.282 0.725552
473.947 0.663959
474.611 0.741501
475.276 0.744051
475.941 0.871751
476.606 0.825296
477.271 0.796114
477.936 0.782262
478.602 0.815497
479.267 0.830894
479.933 0.812512
480.598 0.881326
481.264 0.903358
481.93 0.942055
482.596 0.867686
483.262 0.888854
483.928 1.044472
484.594 0.977105
485.261 1.103457
485.927 1.070420
486.594 1.034272
487.26 1.067996
487.927 1.054042
488.594 0.889642
489.261 1.064075
489.928 1.086135
490.596 1.144920
491.263 1.007200
491.93 1.022941
492.598 0.997820
493.266 1.190395
493.933 1.082152
494.601 1.127460
495.269 1.116277
495.937 1.120203
496.606 1.141420
497.274 1.253316
497.942 1.194147
498.611 1.171608
499.279 1.150613
499.948 1.183631
500.617 1.146807
501.286 1.205735
501.955 1.165373
502.624 1.234237
503.293 1.403947
503.963 1.101059
504.632 1.167374
505.302 1.240569
505.972 1.065591
506.641 1.416584
507.311 1.056962
507.981 1.072705
508.651 1.053453
509.322 1.253247
509.992 1.148517
510.662 1.145502
511.333 1.116378
512.004 1.167595
512.674 1.078998
513.345 1.343328
514.016 1.010072
514.687 1.148749
515.358 1.087034
516.029 1.271120
516.701 1.181200
517.372 1.173669
518.044 1.249777
518.716 1.196327
519.387 1.337775
520.059 0.990032
520.731 1.125721
521.403 1.176481
522.076 0.932862
522.748 0.962786
523.42 1.138216
524.093 0.809939
524.765 0.919991
525.438 0.838163
526.111 0.999775
526.784 0.889823
527.457 1.296133
528.13 0.916617
528.803 0.922569
529.476 0.888735
530.15 0.858902
530.823 0.849292
531.497 0.958243
532.171 0.836648
532.845 1.023915
533.519 0.853285
534.193 0.837644
534.867 0.820702
535.541 0.782378
536.216 0.743754
536.89 0.761538
537.564 0.759411
538.239 0.796512
538.914 0.712144
539.589 0.772941
540.264 0.661674
540.939 0.644595
541.614 0.680764
542.289 0.671511
542.965 0.648612
543.64 0.639135
544.316 0.611912
544.991 0.575772
545.667 0.559058
546.343 0.516296
547.019 0.552019
547.695 0.528923
548.371 0.514989
549.048 0.530803
549.724 0.495007
550.401 0.460302
551.077 0.448437
551.754 0.521710
552.431 0.418498
553.108 0.433232
553.785 0.397867
554.462 0.427903
555.139 0.416063
555.816 0.387060
556.494 0.414420
557.171 0.403300
557.849 0.351089
558.527 0.346096
559.204 0.313359
559.882 0.345535
560.56 0.324431
561.238 0.310179
561.917 0.295585
562.595 0.269374
563.273 0.276122
563.952 0.228907
564.63 0.267850
565.309 0.270682
565.988 0.245408
566.667 0.225080
567.346 0.242686
568.025 0.236795
568.704 0.217251
569.384 0.241692
570.063 0.199743
570.742 0.207855
571.422 0.194988
572.102 0.201590
572.782 0.193682
573.462 0.190154
574.141 0.192746
574.822 0.181115
575.502 0.176836
576.182 0.188992
576.863 0.167942
577.543 0.171504
578.224 0.158405
578.904 0.155449
579.585 0.159082
580.266 0.150733
580.947 0.143881
581.628 0.142032
582.309 0.149364
582.991 0.131276
583.672 0.145309
584.354 0.145223
585.035 0.129671
585.717 0.125190
586.399 0.123584
587.08 0.126641
587.762 0.113626
588.444 0.117472
589.127 0.118018
589.809 0.129250
590.491 0.119579
591.174 0.119790
591.856 0.114575
592.539 0.112636
593.222 0.125671
593.905 0.112023
594.587 0.094813
595.27 0.109664
595.954 0.122204
596.637 0.108682
597.32 0.120959
598.004 0.114211
598.687 0.113846
599.371 0.120696
600.055 0.099614
600.738 0.104057
601.422 0.102085
602.106 0.104106
602.79 0.109103
603.475 0.102919
604.159 0.109459
604.843 0.093011
605.528 0.104090
606.212 0.077485
606.897 0.084290
607.582 0.092813
608.267 0.081612
608.952 0.098455
609.637 0.085342
610.322 0.093205
611.007 0.083004
611.693 0.084014
612.378 0.088745
613.064 0.079196
613.749 0.089943
614.435 0.073873
615.121 0.081156
615.807 0.090742
616.493 0.093316
617.179 0.086887
617.865 0.080205
618.552 0.061351
619.238 0.097626
619.924 0.091081
620.611 0.068393
621.298 0.072994
621.985 0.101049
622.671 0.090049
623.358 0.079566
624.045 0.087693
624.733 0.064042
625.42 0.077840
626.107 0.090927
626.795 0.068662
627.482 0.078306
628.17 0.090312
628.858 0.067917
629.545 0.077519
630.233 0.080247
630.921 0.079624
631.609 0.087021
632.298 0.070661
632.986 0.065549
633.674 0.105650
634.363 0.098440
635.051 0.105333
635.74 0.106319
636.429 0.066024
637.118 0.061697
637.807 0.079349
638.496 0.094189
639.185 0.074236
639.874 0.072297
640.563 0.088684
641.253 0.073226
641.942 0.061695
642.632 0.046280
643.322 0.078754
644.011 0.037961
644.701 0.086346
645.391 0.071229
646.081 0.052783
646.771 0.038154
647.462 0.077738
648.152 0.059196
648.842 0.092892
649.533 0.072737
650.224 0.114631
650.914 0.057730
651.605 0.069655
652.296 0.056440
652.987 0.101198
653.678 0.069720
654.369 0.090028
655.061 0.135062
655.752 0.104123
656.443 0.001458
657.135 0.095232
657.826 0.089751
658.518 0.089125
659.21 0.125161
659.902 0.144220
660.594 0.135211
661.286 0.062066
661.978 0.056568
662.67 0.130722
663.363 0.047979
664.055 0.074098
664.748 0.035762
665.44 0.071041
666.133 0.047819
666.826 0.078346
667.519 0.085474
668.212 0.089498
668.905 0.086882
669.598 0.051965
670.291 0.116078
670.985 0.087363
671.678 0.109391
672.372 0.058978
673.065 0.064296
673.759 0.038646
674.453 0.054968
675.147 0.052401
675.841 0.077170
676.535 0.065295
677.229 0.073250
677.923 0.078617
678.617 0.053888
679.312 0.106485
680.006 0.098362
680.701 0.059895
681.396 0.074674
682.091 0.057574
682.785 0.059163
683.48 0.106218
684.175 0.034126
684.87 0.081681
685.566 0.091123
686.261 0.085106
686.957 0.096118
687.652 0.056745
688.348 0.058134
689.043 0.058655
689.739 0.081628
690.435 0.077192
691.131 0.075892
691.827 0.087533
692.523 0.072237
693.219 0.074540
693.915 0.046964
694.612 0.083075
695.308 0.095044
696.005 0.072902
696.702 0.072103
697.398 0.076964
698.095 0.099780
698.792 0.052826
699.489 0.073482
700.186 0.100356
700.883 0.062531
701.581 0.098382
702.278 0.074433
702.975 0.093534
703.673 0.130047
704.37 0.080095
705.068 0.067591
705.766 0.099415
706.464 0.073525
707.162 0.036775
707.86 0.106804
708.558 0.079283
709.256 0.033394
709.955 0.040543
710.653 0.069609
711.351 0.030252
712.05 0.087968
712.749 0.075531
713.447 0.050863
714.146 0.078156
714.845 0.079299
715.544 0.094320
716.243 0.069656
716.942 0.060910
717.642 0.085254
718.341 0.058711
719.04 0.104255
719.74 0.083135
720.439 0.093101
721.139 0.081142
721.839 0.063417
722.539 0.051582
723.239 0.108148
723.939 0.086859
724.639 0.113213
725.339 0.071980
726.039 0.062423
726.74 0.090884
727.44 0.092186
728.141 0.035477
728.841 0.075857
729.542 0.071297
730.243 0.079878
730.944 0.087207
731.645 0.097185
732.346 0.074013
733.047 0.081964
733.748 0.087350
734.449 0.089673
735.151 0.082967
735.852 0.098736
736.554 0.109478
737.256 0.078384
737.957 0.047613
738.659 0.082123
739.361 0.075055
740.063 0.034717
740.765 0.071650
741.467 0.087908
742.169 0.053334
742.872 0.027852
743.574 0.082814
744.277 0.085863
744.979 0.105377
745.682 0.055439
746.385 0.073174
747.087 0.064100
747.79 0.069870
748.493 0.107735
749.196 0.056324
749.899 0.064940
750.603 0.064170
751.306 0.072200
752.01 0.079434
752.713 0.068186
753.417 0.092082
754.12 0.104674
754.824 0.072619
755.528 0.060382
756.232 0.072519
756.936 0.079289
757.64 0.086890
758.344 0.086648
759.048 0.078774
759.752 0.090094
760.457 0.075726
761.161 0.079335
761.866 0.102522
762.571 0.073996
763.275 0.070901
763.98 0.099625
764.685 0.059376
765.39 0.081782
766.095 0.076516
766.8 0.058075
767.505 0.071795
768.211 0.089206
768.916 0.107724
769.621 0.076112
770.327 0.063451
771.033 0.072430
771.738 0.096083
772.444 0.106278
773.15 0.065912
773.856 0.081824
774.562 0.082902
775.268 0.061368
775.974 0.075492
776.68 0.096455
777.387 0.063579
778.093 0.116122
778.8 0.110268
779.506 0.063281
780.213 0.061136
780.92 0.080337
781.626 0.063091
782.333 0.042445
783.04 0.045919
783.747 0.088281
784.455 0.066597
785.162 0.041851
785.869 0.082371
786.577 0.070803
787.284 0.098861
787.992 0.088795
788.699 0.058615
789.407 0.105537
790.115 0.052444
790.823 0.085952
791.531 0.034504
792.239 0.071026
792.947 0.032113
793.655 0.065869
794.363 0.090947
795.072 0.081306
795.78 0.073684
796.489 0.066886
797.197 0.068714
797.906 0.079128
798.615 0.047015
799.323 0.054092
800.032 0.085243
800.741 0.023753
801.45 0.107667
802.159 0.099967
802.869 0.045352
803.578 0.117988
804.287 0.121551
804.997 0.086926
805.706 0.043672
806.416 0.040052
807.126 0.088070
807.835 0.050946
808.545 0.049577
809.255 0.042142
809.965 0.103994
810.675 0.078384
811.385 0.135487
812.096 0.080595
812.806 0.046213
813.516 -0.004511
814.227 0.066387
814.937 0.071188
815.648 0.007753
816.359 0.039720
817.069 0.050345
817.78 0.005150
818.491 0.039540
819.202 0.036814
819.913 0.090111
820.624 0.093112
821.336 0.178155
822.047 0.128041
822.758 0.141219
823.47 0.113520
824.181 0.082613
824.893 0.038005
825.605 0.010380
826.317 0.091211
827.028 0.131208
827.74 0.037353
828.452 0.057621
829.164 0.059704
829.876 0.097016
830.589 0.089764
831.301 0.091236
832.013 0.097305
832.726 0.004276
833.438 0.044154
834.151 0.082530
834.864 0.066978
835.577 0.089728
836.289 0.159433
837.002 0.084237
837.715 -0.032937
838.428 0.111902
839.141 0.079977
839.855 0.050389
840.568 0.057309
841.281 0.057445
841.995 0.006482
842.708 -0.145185
843.422 0.102757
844.135 0.139543
844.849 0.037238
845.563 0.030865
846.277 0.001455
846.991 -0.044391
847.705 0.028577
848.419 -0.078973
849.133 0.106953
849.847 0.090309
850.562 -0.018131
851.276 -0.081552
851.991 0.137629
852.705 0.043898
853.42 0.030627
854.135 0.092453
854.85 0.131018
855.564 0.117259
856.279 0.100489
856.994 -0.017292
857.709 0.110351
858.424 0.026276
859.14 0.090031
859.855 0.008461
860.57 0.100610
861.286 0.118740
862.001 0.093249
862.717 -0.014061
863.433 0.092121
864.148 0.027681
864.864 -0.044206
865.58 0.040077
866.296 0.084362
867.012 0.092862
867.728 -0.075027
868.444 0.100701
869.161 -0.059865
869.877 0.145486
870.593 -0.094092
871.31 0.124061
872.026 -0.023298
872.743 -0.025019
873.46 0.143638
874.176 0.017978
874.893 -0.009918
875.61 -0.007372
876.327 0.174157
877.044 0.033817
877.761 0.006408
878.478 0.091513
879.196 0.105559
879.913 0.107928
880.63 -0.005060
881.348 0.066331
882.065 0.099050
882.783 -0.010804
883.501 0.061367
884.218 0.002009
884.936 -0.010581
885.654 0.089205
886.372 0.035684
887.09 0.050896
887.808 0.041678
888.527 0.016979
889.245 -0.003432
889.963 0.095985
890.682 0.083128
891.4 -0.047055
892.119 0.001175
892.837 0.135325
893.556 0.112864
894.275 -0.022198
894.994 0.134524
895.712 0.170262
896.431 0.073690
897.15 0.075891
897.87 -0.032171
898.589 0.027174
899.308 0.206467
900.027 -0.163184
900.747 0.123182
901.466 0.017685
902.186 0.096490
902.905 0.077320
903.625 0.087314
904.345 -0.006498
905.064 -0.005481
905.784 0.263241
906.504 0.112081
907.224 -0.027644
907.944 0.025567
908.664 -0.101000
909.385 -0.019546
910.105 0.240918
910.825 -0.010180
911.546 -0.008783
912.266 0.126230
912.987 -0.043354
913.707 -0.189394
914.428 0.003640
915.149 -0.089195
915.87 0.156592
916.591 -0.165995
917.312 0.077252
918.033 0.032381
918.754 0.063725
919.475 0.568263
920.196 -0.008006
920.918 0.002822
921.639 0.295087
922.361 0.009951
923.082 -0.007954
923.804 0.110976
924.525 -0.071974
925.247 -0.019416
925.969 -0.090268
926.691 0.086631
927.413 -0.112373
928.135 0.136108
928.857 -0.034441
929.579 0.019433
930.301 0.018452
931.023 0.250483
931.746 0.190307
932.468 0.162984
933.191 -0.155988
933.913 0.113136
934.636 -0.132076
935.358 0.350938
936.081 -0.022006
936.804 -0.230468
937.527 0.041675
938.25 0.208380
938.973 0.199418
939.696 -0.270006
940.419 -0.221209
941.142 -0.237249
941.865 0.098391
942.589 0.135250
943.312 -0.006454
944.036 0.014584
944.759 0.041587
945.483 -0.201009
946.207 0.278754
946.93 -0.815639
947.654 -0.209468
948.378 -0.385926
949.102 -0.230741
949.826 -0.219866
950.55 0.322293
951.274 -0.341334
951.998 -0.070951
952.723 -0.509972
953.447 -0.082629
954.171 -1.660833
954.896 -0.231192
955.62 -0.184461
956.345 0.542954
957.07 -0.121295
957.794 0.016617
958.519 0.037316
959.244 -0.174536
959.969 0.193460
960.694 0.087848
961.419 -0.450249
962.144 -0.543936
962.869 -0.497626
963.594 -0.038933
964.32 3.145818
965.045 -0.013081
965.77 -0.512890
966.496 -0.253279
967.222 -0.115117
967.947 -0.164747
968.673 -0.265803
969.399 -0.176825
970.125 -0.363332
970.85 -0.453640
971.576 1.996731
972.302 0.164491
973.028 3.206826
973.755 0.144658
974.481 -0.256891
975.207 -0.192018
975.933 -0.242516
976.66 3.082785
977.386 -0.386223
978.113 -0.556545
978.839 0.623627
979.566 -0.180776
980.293 -0.122698
981.019 -0.441420
981.746 -0.879996
982.473 -0.188909
983.2 0.011702
983.927 -0.342829
984.654 -0.218214
985.381 0.346645
986.109 -2.773786
986.836 0.204183
987.563 -0.601844
988.291 -0.456535
989.018 0.284048
989.746 -0.964639
990.473 2.935507
991.201 0.301030
991.928 -3.163758
992.656 0.304335
993.384 0.014709
994.112 -0.453175
994.84 0.000000
995.568 0.040318
996.296 2.827369
997.024 -1.145019
997.752 -0.190403
998.481 0.221104
999.209 0.000000
999.937 2.318063
1000.67 -0.341250
1001.39 -0.112258
1002.12 -0.291192
1002.85 0.243967
1003.58 -3.274158
1004.31 0.483803
1005.04 0.480033
1005.77 -0.047326
1006.5 -0.044419
1007.22 -0.263768
1007.95 3.146128
1008.68 -0.256937
1009.41 -3.151063
1010.14 0.253992
1010.87 0.084257
1011.6 -1.647734
1012.33 -0.196050
1013.06 0.000000
1013.79 0.066834
1014.52 0.317489
1015.25 0.198577
1015.98 0.164692
1016.71 -0.940966
1017.44 -0.087042
1018.17 0.442849
1018.9 0.023780
1019.63 0.475180
1020.36 -0.074147
1021.09 0.008148
1021.82 0.000000
1022.55 2.902003
1023.03 -0.184910