File: Auto_Polymerization/Data/UV_VIS_Spectra/MRG-061-F5_spectra_while_stopped_with_alu_foil/spectrum_2025-06-20_10-08-03_absorbance.txt
# Wavelength	Absorbance
197.78 -0.115795
198.392 0.020332
199.004 -0.391501
199.617 2.768638
200.229 2.463893
200.842 1.004376
201.455 0.469613
202.067 -0.152331
202.68 0.253338
203.294 0.171044
203.907 -0.880437
204.52 0.311679
205.134 0.081356
205.748 0.529857
206.361 0.000000
206.975 -0.019401
207.589 -3.300813
208.204 0.354329
208.818 0.495544
209.433 2.907949
210.047 2.798651
210.662 0.457683
211.277 0.173149
211.892 2.480007
212.507 3.209783
213.122 2.866287
213.738 -0.107995
214.353 0.000000
214.969 2.896526
215.585 2.846955
216.201 0.806180
216.817 2.833784
217.433 2.536558
218.049 0.000000
218.666 0.148451
219.282 2.960946
219.899 0.428163
220.516 0.000000
221.133 2.902003
221.75 1.420127
222.368 0.646112
222.985 0.000000
223.603 2.632457
224.22 2.935507
224.838 -0.156074
225.456 2.653213
226.074 0.084683
226.692 0.000000
227.311 3.111934
227.929 3.252853
228.548 -0.077882
229.167 -2.429752
229.786 0.791691
230.405 -0.557350
231.024 2.890421
231.643 -0.158870
232.262 0.233628
232.882 2.599883
233.501 2.902003
234.121 0.000000
234.741 0.299645
235.361 0.574769
235.982 2.562293
236.602 -2.313867
237.222 -0.275024
237.843 1.851258
238.464 3.063333
239.084 0.000000
239.706 2.643453
240.327 2.190332
240.948 0.207150
241.569 0.139697
242.191 0.294073
242.812 -0.163568
243.434 0.599417
244.056 0.000000
244.678 0.003969
245.3 2.357935
245.923 0.943339
246.545 2.396199
247.167 1.063085
247.79 1.845098
248.413 2.872739
249.036 3.030600
249.659 3.192567
250.282 3.189490
250.906 0.265163
251.529 -0.385852
252.153 0.477344
252.776 2.397940
253.4 2.935003
254.024 1.668619
254.648 -0.440138
255.273 3.097604
255.897 1.132568
256.521 2.827369
257.146 2.902003
257.771 -2.889862
258.396 3.082785
259.021 3.026125
259.646 0.083438
260.271 2.621176
260.897 0.214630
261.522 3.142702
262.148 0.633869
262.774 2.907411
263.399 3.206826
264.026 2.396199
264.652 3.097604
265.278 0.990339
265.904 -0.275233
266.531 2.294466
267.158 0.310764
267.784 2.550228
268.411 0.869314
269.038 2.123852
269.666 2.965672
270.293 -2.767898
270.921 -0.334123
271.548 0.609180
272.176 3.277609
272.804 -0.048805
273.432 0.135455
274.06 2.945961
274.688 0.789103
275.316 3.055378
275.945 0.965672
276.573 0.140268
277.202 3.047275
277.831 3.118595
278.46 0.621640
279.089 2.691965
279.718 0.916744
280.348 2.632457
280.977 0.032678
281.607 0.000000
282.237 0.057632
282.866 2.791691
283.497 0.600847
284.127 0.845098
284.757 3.025715
285.387 0.000000
286.018 0.652772
286.648 -0.181372
287.279 2.846955
287.91 2.621176
288.541 1.589526
289.172 -2.429752
289.803 0.000000
290.435 0.000000
291.067 -0.021780
291.698 2.768638
292.33 -0.143139
292.962 0.000000
293.594 0.082004
294.226 0.000000
294.858 3.074816
295.491 -2.934498
296.123 0.585915
296.756 3.220892
297.389 1.037376
298.022 0.431549
298.654 0.276078
299.288 0.000000
299.921 1.082229
300.554 2.769377
301.188 3.104487
301.822 0.790707
302.455 0.051109
303.089 2.357935
303.723 0.461881
304.357 2.432969
304.992 2.784617
305.626 2.294466
306.261 3.051153
306.895 -0.666856
307.53 3.165244
308.165 0.000000
308.8 0.132769
309.435 1.246129
310.07 3.129045
310.706 3.168203
311.341 3.296446
311.977 3.142702
312.613 3.012837
313.249 0.690560
313.885 3.086360
314.521 3.104828
315.157 0.450106
315.793 -0.502124
316.43 1.095422
317.067 1.463445
317.703 1.121416
318.34 3.097604
318.977 2.233472
319.614 3.245019
320.252 0.603574
320.889 2.465383
321.526 1.249628
322.164 3.132580
322.802 0.241764
323.44 1.007681
324.078 0.896296
324.716 3.399154
325.354 3.583765
325.992 0.449606
326.631 3.581495
327.269 3.416973
327.908 0.573897
328.547 0.868791
329.186 3.564311
329.825 3.485153
330.464 0.611802
331.104 1.064071
331.743 3.583879
332.383 3.520876
333.022 3.595606
333.662 1.011686
334.302 3.740521
334.942 3.626956
335.582 3.640879
336.223 3.666237
336.863 2.107851
337.504 3.672098
338.144 3.781037
338.785 3.703205
339.426 0.914185
340.067 3.741388
340.708 3.745543
341.349 3.731266
341.991 3.831166
342.632 2.626340
343.274 1.125199
343.916 0.995062
344.558 3.886829
345.2 3.834484
345.842 2.107093
346.484 3.898615
347.126 1.171212
347.769 3.886321
348.411 1.333096
349.054 3.926085
349.697 1.373860
350.34 1.445108
350.983 1.765532
351.626 1.203638
352.27 3.959471
352.913 0.941650
353.557 1.211524
354.2 3.930898
354.844 3.994273
355.488 3.989138
356.132 4.015527
356.776 3.974327
357.421 1.098340
358.065 3.991935
358.709 4.012879
359.354 1.253402
359.999 0.765454
360.644 3.982497
361.289 4.042142
361.934 4.009323
362.579 4.062845
363.224 1.636755
363.87 4.028164
364.515 4.049102
365.161 4.048325
365.807 1.446371
366.453 1.063949
367.099 0.862514
367.745 4.114678
368.392 1.504155
369.038 4.150173
369.685 4.136974
370.331 1.196389
370.978 4.107990
371.625 1.166391
372.272 1.248648
372.919 1.135750
373.566 1.556942
374.214 1.074516
374.861 2.015029
375.509 0.944600
376.156 4.224455
376.804 1.382240
377.452 4.269816
378.1 1.278293
378.748 4.301356
379.397 1.373213
380.045 1.395898
380.694 1.344803
381.342 1.638718
381.991 4.304318
382.64 4.341553
383.289 4.351042
383.938 4.339471
384.587 1.954340
385.237 2.000306
385.886 1.483373
386.536 1.104331
387.186 1.522646
387.836 4.396356
388.485 1.525389
389.135 2.107177
389.786 1.446165
390.436 4.410828
391.086 2.670438
391.737 4.423459
392.387 2.465576
393.038 4.488325
393.689 1.539149
394.34 1.598893
394.991 1.163445
395.642 1.774888
396.294 1.226949
396.945 1.428743
397.597 0.962750
398.248 0.910736
398.9 0.897716
399.552 1.216915
400.204 0.877871
400.856 0.921904
401.509 0.963088
402.161 0.975378
402.813 0.714427
403.466 0.802433
404.119 0.809118
404.772 0.831163
405.425 0.683915
406.078 0.675573
406.731 0.633344
407.384 0.706043
408.038 0.765804
408.691 0.620702
409.345 0.647263
409.998 0.621151
410.652 0.637378
411.306 0.617413
411.961 0.697904
412.615 0.561017
413.269 0.525399
413.923 0.629764
414.578 0.569983
415.233 0.614353
415.887 0.483410
416.542 0.583966
417.197 0.554266
417.852 0.467379
418.508 0.523559
419.163 0.442359
419.818 0.460539
420.474 0.534938
421.13 0.470739
421.786 0.480010
422.442 0.479736
423.098 0.443417
423.754 0.455333
424.41 0.432362
425.066 0.479510
425.723 0.444050
426.379 0.457576
427.036 0.407975
427.693 0.438209
428.35 0.390832
429.007 0.422729
429.664 0.370642
430.321 0.449804
430.979 0.400116
431.636 0.421715
432.294 0.394743
432.952 0.410471
433.609 0.407049
434.267 0.415006
434.925 0.370500
435.584 0.451179
436.242 0.393252
436.9 0.467165
437.559 0.392186
438.217 0.401993
438.876 0.376952
439.535 0.401212
440.194 0.375612
440.853 0.445879
441.512 0.405280
442.171 0.390856
442.831 0.388941
443.49 0.383183
444.15 0.393129
444.81 0.430409
445.469 0.475307
446.129 0.420775
446.789 0.481763
447.45 0.436984
448.11 0.420003
448.77 0.432059
449.431 0.449988
450.091 0.536850
450.752 0.455053
451.413 0.480891
452.074 0.496066
452.735 0.477945
453.396 0.484895
454.057 0.482749
454.719 0.457460
455.38 0.511086
456.042 0.516976
456.704 0.474136
457.365 0.564879
458.027 0.549966
458.689 0.541379
459.352 0.556664
460.014 0.563706
460.676 0.605150
461.339 0.577053
462.001 0.564591
462.664 0.541254
463.327 0.719267
463.99 0.685238
464.653 0.651702
465.316 0.679398
465.979 0.677635
466.642 0.655149
467.306 0.702549
467.97 0.776191
468.633 0.743207
469.297 0.642585
469.961 0.708892
470.625 0.772519
471.289 0.818781
471.953 0.780702
472.618 0.769617
473.282 0.882406
473.947 0.799716
474.611 0.824112
475.276 0.885495
475.941 0.922123
476.606 0.898303
477.271 0.883277
477.936 1.013376
478.602 1.029962
479.267 0.905181
479.933 0.973444
480.598 0.933355
481.264 1.012474
481.93 0.981916
482.596 0.986749
483.262 0.965606
483.928 1.115223
484.594 0.921049
485.261 1.102003
485.927 1.116760
486.594 1.059443
487.26 1.076704
487.927 1.270808
488.594 1.244737
489.261 1.183013
489.928 1.078350
490.596 1.109417
491.263 1.099649
491.93 1.274291
492.598 1.418598
493.266 1.228479
493.933 1.238469
494.601 1.189400
495.269 1.292145
495.937 1.318093
496.606 1.208005
497.274 1.499400
497.942 1.371406
498.611 1.256678
499.279 1.236933
499.948 1.200134
500.617 1.281895
501.286 1.663836
501.955 1.404533
502.624 1.442626
503.293 1.505723
503.963 1.453394
504.632 1.613279
505.302 1.619717
505.972 1.594591
506.641 1.554067
507.311 1.280415
507.981 1.377057
508.651 1.167226
509.322 1.387781
509.992 1.652248
510.662 1.165384
511.333 1.219110
512.004 1.288967
512.674 1.237033
513.345 1.377129
514.016 1.277500
514.687 1.330475
515.358 1.440253
516.029 1.327114
516.701 1.099121
517.372 1.156137
518.044 1.122026
518.716 1.193935
519.387 1.283532
520.059 1.307715
520.731 1.462409
521.403 1.536340
522.076 1.161452
522.748 1.084058
523.42 1.232092
524.093 1.038036
524.765 1.200177
525.438 1.098859
526.111 1.098107
526.784 0.992570
527.457 1.052128
528.13 1.065950
528.803 0.926796
529.476 1.014191
530.15 0.944783
530.823 1.119927
531.497 0.922324
532.171 0.892226
532.845 0.964980
533.519 0.950497
534.193 0.979408
534.867 0.856806
535.541 0.830690
536.216 0.772189
536.89 0.814973
537.564 0.757162
538.239 0.803161
538.914 0.758131
539.589 0.784851
540.264 0.767189
540.939 0.719381
541.614 0.799815
542.289 0.715740
542.965 0.724276
543.64 0.639949
544.316 0.653489
544.991 0.647189
545.667 0.646028
546.343 0.681590
547.019 0.662074
547.695 0.607802
548.371 0.540262
549.048 0.606186
549.724 0.512487
550.401 0.511346
551.077 0.485889
551.754 0.498156
552.431 0.481284
553.108 0.443191
553.785 0.456178
554.462 0.467697
555.139 0.403022
555.816 0.460221
556.494 0.424705
557.171 0.378719
557.849 0.403244
558.527 0.361607
559.204 0.368734
559.882 0.300451
560.56 0.320776
561.238 0.318520
561.917 0.333273
562.595 0.327098
563.273 0.310696
563.952 0.304561
564.63 0.292556
565.309 0.273736
565.988 0.285198
566.667 0.266205
567.346 0.253461
568.025 0.267791
568.704 0.249958
569.384 0.256287
570.063 0.255518
570.742 0.242660
571.422 0.240629
572.102 0.239053
572.782 0.247559
573.462 0.218475
574.141 0.222732
574.822 0.208047
575.502 0.216950
576.182 0.216865
576.863 0.208775
577.543 0.206942
578.224 0.196351
578.904 0.198055
579.585 0.181669
580.266 0.180958
580.947 0.181847
581.628 0.162798
582.309 0.170189
582.991 0.163288
583.672 0.167561
584.354 0.161474
585.035 0.167811
585.717 0.155222
586.399 0.162203
587.08 0.152226
587.762 0.149994
588.444 0.150599
589.127 0.149896
589.809 0.161792
590.491 0.128596
591.174 0.151523
591.856 0.136410
592.539 0.128369
593.222 0.135546
593.905 0.138323
594.587 0.134813
595.27 0.131466
595.954 0.141938
596.637 0.135033
597.32 0.130195
598.004 0.127492
598.687 0.135441
599.371 0.131326
600.055 0.138445
600.738 0.118637
601.422 0.127021
602.106 0.113497
602.79 0.131582
603.475 0.125870
604.159 0.126664
604.843 0.121824
605.528 0.110898
606.212 0.108728
606.897 0.102467
607.582 0.119950
608.267 0.111033
608.952 0.099301
609.637 0.108897
610.322 0.110223
611.007 0.105215
611.693 0.110382
612.378 0.111500
613.064 0.114162
613.749 0.105860
614.435 0.110217
615.121 0.095680
615.807 0.106405
616.493 0.104081
617.179 0.097855
617.865 0.102824
618.552 0.086930
619.238 0.108876
619.924 0.110058
620.611 0.105363
621.298 0.104977
621.985 0.099502
622.671 0.104332
623.358 0.111912
624.045 0.115209
624.733 0.091209
625.42 0.083772
626.107 0.093709
626.795 0.103569
627.482 0.095764
628.17 0.071196
628.858 0.078245
629.545 0.109187
630.233 0.102059
630.921 0.099246
631.609 0.109744
632.298 0.090056
632.986 0.098482
633.674 0.089257
634.363 0.112336
635.051 0.114946
635.74 0.085835
636.429 0.091008
637.118 0.097249
637.807 0.109359
638.496 0.107288
639.185 0.088686
639.874 0.091266
640.563 0.103528
641.253 0.086416
641.942 0.096789
642.632 0.086716
643.322 0.052987
644.011 0.091368
644.701 0.061526
645.391 0.094293
646.081 0.063833
646.771 0.080925
647.462 0.140079
648.152 0.082241
648.842 0.096230
649.533 0.066247
650.224 0.094549
650.914 0.115325
651.605 0.107819
652.296 0.115398
652.987 0.073427
653.678 0.094305
654.369 0.122143
655.061 0.152069
655.752 0.111565
656.443 0.001458
657.135 0.107341
657.826 0.109571
658.518 0.113220
659.21 0.141261
659.902 0.180445
660.594 0.134218
661.286 0.105174
661.978 0.095095
662.67 0.102192
663.363 0.099059
664.055 0.066572
664.748 0.100939
665.44 0.121255
666.133 0.137755
666.826 0.079213
667.519 0.097656
668.212 0.087737
668.905 0.048073
669.598 0.069924
670.291 0.124130
670.985 0.068192
671.678 0.085847
672.372 0.082220
673.065 0.071628
673.759 0.070051
674.453 0.127716
675.147 0.082583
675.841 0.106933
676.535 0.074915
677.229 0.087987
677.923 0.105780
678.617 0.087933
679.312 0.109098
680.006 0.108425
680.701 0.086798
681.396 0.113576
682.091 0.091305
682.785 0.079604
683.48 0.083651
684.175 0.079653
684.87 0.137231
685.566 0.088945
686.261 0.124234
686.957 0.061963
687.652 0.099347
688.348 0.096613
689.043 0.093519
689.739 0.057772
690.435 0.094982
691.131 0.097314
691.827 0.090221
692.523 0.094654
693.219 0.089270
693.915 0.089435
694.612 0.075955
695.308 0.110109
696.005 0.111518
696.702 0.080787
697.398 0.107573
698.095 0.106334
698.792 0.071053
699.489 0.099839
700.186 0.083572
700.883 0.104835
701.581 0.119249
702.278 0.104169
702.975 0.080437
703.673 0.124675
704.37 0.089690
705.068 0.045230
705.766 0.073086
706.464 0.088107
707.162 0.068475
707.86 0.110965
708.558 0.088192
709.256 0.074209
709.955 0.079707
710.653 0.075114
711.351 0.067400
712.05 0.104661
712.749 0.078658
713.447 0.083095
714.146 0.069408
714.845 0.101502
715.544 0.093457
716.243 0.108328
716.942 0.080797
717.642 0.119222
718.341 0.130566
719.04 0.116872
719.74 0.108417
720.439 0.112763
721.139 0.091787
721.839 0.104948
722.539 0.092863
723.239 0.105855
723.939 0.073769
724.639 0.141783
725.339 0.105861
726.039 0.081366
726.74 0.075435
727.44 0.113420
728.141 0.125552
728.841 0.057828
729.542 0.090508
730.243 0.073628
730.944 0.111406
731.645 0.099480
732.346 0.060660
733.047 0.087516
733.748 0.104688
734.449 0.085663
735.151 0.085034
735.852 0.104028
736.554 0.085343
737.256 0.080333
737.957 0.056097
738.659 0.065182
739.361 0.074346
740.063 0.065076
740.765 0.087317
741.467 0.086131
742.169 0.093869
742.872 0.073552
743.574 0.099226
744.277 0.071229
744.979 0.088646
745.682 0.047760
746.385 0.126411
747.087 0.088663
747.79 0.109923
748.493 0.133074
749.196 0.098120
749.899 0.096167
750.603 0.056742
751.306 0.101526
752.01 0.088226
752.713 0.081087
753.417 0.119623
754.12 0.088809
754.824 0.103830
755.528 0.099468
756.232 0.101133
756.936 0.076479
757.64 0.100688
758.344 0.099020
759.048 0.087994
759.752 0.099236
760.457 0.099314
761.161 0.095029
761.866 0.138694
762.571 0.092932
763.275 0.105581
763.98 0.089371
764.685 0.076612
765.39 0.098810
766.095 0.064032
766.8 0.088340
767.505 0.087554
768.211 0.104918
768.916 0.142383
769.621 0.101980
770.327 0.103419
771.033 0.082704
771.738 0.122229
772.444 0.087442
773.15 0.057792
773.856 0.096669
774.562 0.100805
775.268 0.120775
775.974 0.116314
776.68 0.097544
777.387 0.094978
778.093 0.100391
778.8 0.070047
779.506 0.032009
780.213 0.048893
780.92 0.118484
781.626 0.094812
782.333 0.115406
783.04 0.079619
783.747 0.100717
784.455 0.110125
785.162 0.103001
785.869 0.090887
786.577 0.083935
787.284 0.118732
787.992 0.069298
788.699 0.095202
789.407 0.069104
790.115 0.092177
790.823 0.101604
791.531 0.087313
792.239 0.120794
792.947 0.059646
793.655 0.093877
794.363 0.114641
795.072 0.147614
795.78 0.082616
796.489 0.090960
797.197 0.106404
797.906 0.096339
798.615 0.091470
799.323 0.097104
800.032 0.141875
800.741 0.087843
801.45 0.088188
802.159 0.102450
802.869 0.064863
803.578 0.102916
804.287 0.058952
804.997 0.057460
805.706 0.116910
806.416 0.120766
807.126 0.068034
807.835 0.065441
808.545 0.086225
809.255 0.108884
809.965 0.052253
810.675 0.057321
811.385 0.060721
812.096 0.064427
812.806 0.079229
813.516 0.078321
814.227 0.103122
814.937 0.086200
815.648 0.047678
816.359 0.068888
817.069 0.077109
817.78 0.047189
818.491 0.072426
819.202 0.076637
819.913 0.088319
820.624 0.105075
821.336 0.137727
822.047 0.098660
822.758 0.119463
823.47 0.168039
824.181 0.142207
824.893 0.129226
825.605 0.105375
826.317 0.067384
827.028 0.104381
827.74 0.160002
828.452 0.062498
829.164 0.011058
829.876 0.062080
830.589 0.100811
831.301 0.135541
832.013 0.119686
832.726 0.272966
833.438 0.130538
834.151 0.119162
834.864 0.086167
835.577 0.126435
836.289 0.178937
837.002 0.139835
837.715 0.059882
838.428 0.020534
839.141 0.204869
839.855 0.123631
840.568 0.134684
841.281 0.143871
841.995 0.006895
842.708 0.073743
843.422 0.101169
844.135 0.287870
844.849 -0.030181
845.563 0.071761
846.277 0.079672
846.991 0.076917
847.705 0.131056
848.419 0.125874
849.133 0.046246
849.847 0.142829
850.562 0.200000
851.276 0.039695
851.991 -0.011580
852.705 0.077482
853.42 0.096662
854.135 0.110689
854.85 0.133361
855.564 0.159612
856.279 0.092780
856.994 0.079454
857.709 0.072123
858.424 0.099752
859.14 0.117378
859.855 0.133640
860.57 0.124021
861.286 0.058379
862.001 0.057015
862.717 0.021800
863.433 0.073806
864.148 0.084649
864.864 0.130206
865.58 -0.046691
866.296 0.308571
867.012 0.214617
867.728 0.021151
868.444 0.047198
869.161 0.203297
869.877 -0.009353
870.593 -0.015453
871.31 0.166574
872.026 0.000966
872.743 0.308738
873.46 0.334514
874.176 0.114910
874.893 0.091374
875.61 0.250112
876.327 0.117524
877.044 0.114838
877.761 0.122285
878.478 0.096575
879.196 0.169909
879.913 0.142489
880.63 0.142196
881.348 0.193441
882.065 0.300050
882.783 0.172362
883.501 0.149662
884.218 0.018348
884.936 0.060015
885.654 0.165199
886.372 0.020060
887.09 0.171910
887.808 0.055816
888.527 0.073007
889.245 0.232822
889.963 0.071693
890.682 0.168708
891.4 0.191791
892.119 0.233968
892.837 0.081383
893.556 0.268803
894.275 0.275939
894.994 0.256291
895.712 0.059123
896.431 0.407207
897.15 0.260427
897.87 -0.021988
898.589 0.164882
899.308 0.207409
900.027 0.006332
900.747 0.159239
901.466 0.059716
902.186 0.056780
902.905 0.160487
903.625 0.055869
904.345 0.054063
905.064 0.156970
905.784 0.336221
906.504 0.319201
907.224 0.202288
907.944 -0.024540
908.664 0.058334
909.385 0.040819
910.105 0.189217
910.825 0.242430
911.546 0.133445
912.266 0.036535
912.987 0.157776
913.707 0.126203
914.428 0.335814
915.149 0.028383
915.87 0.294096
916.591 0.140743
917.312 0.032877
918.033 0.124757
918.754 0.440126
919.475 0.181885
920.196 0.109556
920.918 0.219511
921.639 0.288474
922.361 0.148562
923.082 0.277979
923.804 0.354522
924.525 0.387518
925.247 -0.006124
925.969 0.006873
926.691 0.239279
927.413 0.205691
928.135 0.177653
928.857 -0.108177
929.579 0.410500
930.301 0.155946
931.023 0.133546
931.746 0.494608
932.468 0.164186
933.191 0.323343
933.913 -0.037465
934.636 0.040351
935.358 0.668917
936.081 0.874223
936.804 0.144881
937.527 3.301030
938.25 0.691141
938.973 0.303139
939.696 0.714065
940.419 -0.283907
941.142 -0.115976
941.865 0.053143
942.589 0.678822
943.312 0.131954
944.036 0.689266
944.759 0.236305
945.483 -0.088013
946.207 3.136086
946.93 -0.251131
947.654 0.620428
948.378 -0.485377
949.102 0.191103
949.826 1.536627
950.55 0.142288
951.274 3.051538
951.998 0.002975
952.723 0.177931
953.447 0.179935
954.171 -1.307605
954.896 3.012837
955.62 0.403766
956.345 0.279535
957.07 0.092099
957.794 0.051109
958.519 3.125806
959.244 0.023930
959.969 0.370780
960.694 -0.534851
961.419 0.386041
962.144 0.243269
962.869 2.719331
963.594 0.694235
964.32 -0.003093
965.045 2.945961
965.77 0.387733
966.496 -0.374522
967.222 0.213648
967.947 1.096311
968.673 -0.040445
969.399 0.178856
970.125 2.575188
970.85 2.710117
971.576 -0.118880
972.302 0.435603
973.028 0.659051
973.755 0.434821
974.481 -0.130829
975.207 0.202958
975.933 2.853698
976.66 0.768918
977.386 0.592786
978.113 2.776701
978.839 0.329455
979.566 2.663701
980.293 -0.183409
981.019 2.752816
981.746 -1.139429
982.473 0.409379
983.2 1.226911
983.927 2.890421
984.654 0.298024
985.381 0.494370
986.109 -2.152288
986.836 0.828835
987.563 -0.302757
988.291 0.162727
989.018 0.495142
989.746 2.123852
990.473 2.935507
991.201 2.745075
991.928 0.000000
992.656 0.613893
993.384 0.559205
994.112 -0.471200
994.84 0.000000
995.568 2.884795
996.296 1.259168
997.024 -0.989005
997.752 2.768638
998.481 2.890421
999.209 0.000000
999.937 2.318063
1000.67 0.445551
1001.39 2.745075
1002.12 -0.222476
1002.85 0.760996
1003.58 0.000000
1004.31 2.719331
1005.04 0.154396
1005.77 0.321506
1006.5 2.812913
1007.22 2.653213
1007.95 0.180926
1008.68 -0.463371
1009.41 -3.107888
1010.14 0.350184
1010.87 0.220268
1011.6 1.591065
1012.33 0.189741
1013.06 0.000000
1013.79 3.108227
1014.52 3.161967
1015.25 0.510764
1015.98 0.552622
1016.71 -0.839458
1017.44 -0.573158
1018.17 0.550483
1018.9 3.021603
1019.63 2.950851
1020.36 2.575188
1021.09 0.352631
1021.82 0.000000
1022.55 2.902003
1023.03 1.244712