File: Auto_Polymerization/Data/UV_VIS_Spectra/MRG-061-F-3_pure_compounds_spectra_test/DMSO+MMA_spectrum_average.txt
# Wavelength	Average Intensity
197.78 0.000967
198.392 0.000271
199.004 0.000397
199.617 -0.000004
200.229 0.001164
200.842 -0.000046
201.455 0.001115
202.067 0.000201
202.68 0.000320
203.294 0.000299
203.907 -0.000250
204.52 0.000616
205.134 0.000355
205.748 0.000313
206.361 0.000876
206.975 0.000433
207.589 0.000489
208.204 -0.000263
208.818 0.000799
209.433 0.000102
210.047 0.000953
210.662 0.000433
211.277 0.000418
211.892 0.000003
212.507 0.000721
213.122 0.000714
213.738 0.000806
214.353 0.000151
214.969 0.000468
215.585 0.000039
216.201 0.000833
216.817 -0.000292
217.433 0.000531
218.049 0.000545
218.666 0.001677
219.282 0.000179
219.899 0.000805
220.516 0.000616
221.133 0.000538
221.75 0.000186
222.368 0.000320
222.985 0.001192
223.603 0.000306
224.22 -0.000116
224.838 0.001009
225.456 0.000833
226.074 0.000721
226.692 0.001030
227.311 0.000834
227.929 -0.000060
228.548 0.000264
229.167 0.000735
229.786 0.000693
230.405 -0.000060
231.024 0.000214
231.643 0.000144
232.262 0.000643
232.882 0.000735
233.501 0.000362
234.121 0.000088
234.741 -0.000215
235.361 0.000348
235.982 0.000939
236.602 0.000123
237.222 0.000573
237.843 0.000046
238.464 0.001523
239.084 0.000046
239.706 0.001122
240.327 0.000601
240.948 0.000425
241.569 0.000095
242.191 0.000820
242.812 -0.000721
243.434 0.000770
244.056 0.000376
244.678 0.000911
245.3 -0.000292
245.923 0.000735
246.545 -0.000046
247.167 0.000425
247.79 0.000524
248.413 0.000925
249.036 0.000376
249.659 0.000257
250.282 0.001459
250.906 0.000658
251.529 0.000236
252.153 0.000798
252.776 0.000432
253.4 0.000461
254.024 0.000208
254.648 0.000510
255.273 0.000643
255.897 0.000890
256.521 0.000524
257.146 0.000770
257.771 0.000446
258.396 0.000334
259.021 0.000327
259.646 0.000918
260.271 -0.000278
260.897 0.000700
261.522 -0.000053
262.148 0.000433
262.774 -0.000299
263.399 0.001087
264.026 -0.000594
264.652 0.000897
265.278 -0.000334
265.904 0.000496
266.531 -0.000405
267.158 0.000721
267.784 0.000841
268.411 0.000777
269.038 0.000756
269.666 0.000334
270.293 0.000243
270.921 0.000447
271.548 0.000313
272.176 0.000447
272.804 0.000221
273.432 0.000637
274.06 -0.000123
274.688 0.000109
275.316 0.000749
275.945 0.000651
276.573 -0.000017
277.202 0.001234
277.831 0.000341
278.46 0.000960
279.089 0.000531
279.718 0.001094
280.348 0.000419
280.977 0.000862
281.607 0.000904
282.237 0.000771
282.866 -0.000053
283.497 0.000229
284.127 0.000749
284.757 0.000397
285.387 0.000144
286.018 0.000468
286.648 -0.000172
287.279 0.000411
287.91 0.000390
288.541 0.000214
289.172 0.000967
289.803 0.000974
290.435 0.000629
291.067 0.000588
291.698 0.000981
292.33 0.000918
292.962 0.000989
293.594 0.000953
294.226 0.000383
294.858 0.001206
295.491 -0.000468
296.123 0.001389
296.756 0.000686
297.389 -0.000172
298.022 0.001199
298.654 0.000391
299.288 0.000355
299.921 0.000362
300.554 -0.000039
301.188 0.001037
301.822 0.000883
302.455 0.000067
303.089 0.000573
303.723 0.000285
304.357 0.000735
304.992 0.000988
305.626 0.001017
306.261 -0.000074
306.895 0.001136
307.53 0.001488
308.165 0.000538
308.8 0.001636
309.435 0.000229
310.07 0.000883
310.706 0.000770
311.341 0.000721
311.977 0.000517
312.613 0.001087
313.249 0.000594
313.885 0.001030
314.521 0.001586
315.157 0.002332
315.793 0.001453
316.43 0.001129
317.067 0.000791
317.703 0.000847
318.34 0.001509
318.977 0.002353
319.614 0.002093
320.252 0.001811
320.889 0.001389
321.526 0.001769
322.164 0.002219
322.802 0.002121
323.44 0.002529
324.078 0.003746
324.716 0.003092
325.354 0.001874
325.992 0.003162
326.631 0.003126
327.269 0.002979
327.908 0.002803
328.547 0.002086
329.186 0.003528
329.825 0.002867
330.464 0.003070
331.104 0.002782
331.743 0.003921
332.383 0.003246
333.022 0.003893
333.662 0.003492
334.302 0.004351
334.942 0.004590
335.582 0.004921
336.223 0.003781
336.863 0.004744
337.504 0.004653
338.144 0.004519
338.785 0.005560
339.426 0.004674
340.067 0.004787
340.708 0.006489
341.349 0.006011
341.991 0.005603
342.632 0.005624
343.274 0.006524
343.916 0.006250
344.558 0.007059
345.2 0.006623
345.842 0.006377
346.484 0.006243
347.126 0.006953
347.769 0.007911
348.411 0.008494
349.054 0.007432
349.697 0.008726
350.34 0.008079
350.983 0.009394
351.626 0.008213
352.27 0.008487
352.913 0.009240
353.557 0.008684
354.2 0.008564
354.844 0.009268
355.488 0.009422
356.132 0.008881
356.776 0.009064
357.421 0.010260
358.065 0.010063
358.709 0.009978
359.354 0.010105
359.999 0.009901
360.644 0.010400
361.289 0.010027
361.934 0.010034
362.579 0.009971
363.224 0.010527
363.87 0.011195
364.515 0.010386
365.161 0.010907
365.807 0.011463
366.453 0.011427
367.099 0.012581
367.745 0.013080
368.392 0.012215
369.038 0.013608
369.685 0.013341
370.331 0.014283
370.978 0.013172
371.625 0.014058
372.272 0.013101
372.919 0.014713
373.566 0.013587
374.214 0.015163
374.861 0.015036
375.509 0.017308
376.156 0.017223
376.804 0.017280
377.452 0.017927
378.1 0.019067
378.748 0.019186
379.397 0.020713
380.045 0.020354
380.694 0.021275
381.342 0.020115
381.991 0.021564
382.64 0.021402
383.289 0.021487
383.938 0.022274
384.587 0.022963
385.237 0.023112
385.886 0.023723
386.536 0.023484
387.186 0.024793
387.836 0.026073
388.485 0.026164
389.135 0.025257
389.786 0.025679
390.436 0.024680
391.086 0.026530
391.737 0.027613
392.387 0.030511
393.038 0.031919
393.689 0.029843
394.34 0.030505
394.991 0.030948
395.642 0.030800
396.294 0.031476
396.945 0.032326
397.597 0.034915
398.248 0.035689
398.9 0.037729
399.552 0.035190
400.204 0.034479
400.856 0.034655
401.509 0.035429
402.161 0.034036
402.813 0.034120
403.466 0.034198
404.119 0.035893
404.772 0.035914
405.425 0.037905
406.078 0.038411
406.731 0.036013
407.384 0.033551
408.038 0.034733
408.691 0.035499
409.345 0.035281
409.998 0.036259
410.652 0.035049
411.306 0.035119
411.961 0.034381
412.615 0.037005
413.269 0.036828
413.923 0.038833
414.578 0.036013
415.233 0.036456
415.887 0.035822
416.542 0.036512
417.197 0.037138
417.852 0.036793
418.508 0.038362
419.163 0.039178
419.818 0.038242
420.474 0.039733
421.13 0.042182
421.786 0.046452
422.442 0.045572
423.098 0.045614
423.754 0.044637
424.41 0.042259
425.066 0.042836
425.723 0.041710
426.379 0.038102
427.036 0.039755
427.693 0.041718
428.35 0.040451
429.007 0.041085
429.664 0.046438
430.321 0.049132
430.979 0.046972
431.636 0.043343
432.294 0.040395
432.952 0.040957
433.609 0.044081
434.267 0.048583
434.925 0.041900
435.584 0.043371
436.242 0.044426
436.9 0.046051
437.559 0.043659
438.217 0.045544
438.876 0.046944
439.535 0.046142
440.194 0.045769
440.853 0.045868
441.512 0.055110
442.171 0.055041
442.831 0.052677
443.49 0.056047
444.15 0.055498
444.81 0.053810
445.469 0.054632
446.129 0.052895
446.789 0.054696
447.45 0.053585
448.11 0.053359
448.77 0.052192
449.431 0.052360
450.091 0.052945
450.752 0.052571
451.413 0.048611
452.074 0.049462
452.735 0.050046
453.396 0.047451
454.057 0.048379
454.719 0.046430
455.38 0.049969
456.042 0.049498
456.704 0.047993
457.365 0.050510
458.027 0.052079
458.689 0.053275
459.352 0.052529
460.014 0.053732
460.676 0.051706
461.339 0.051573
462.001 0.049638
462.664 0.047682
463.327 0.048555
463.99 0.051481
464.653 0.054907
465.316 0.057679
465.979 0.060316
466.642 0.052888
467.306 0.050257
467.97 0.048330
468.633 0.049279
469.297 0.045643
469.961 0.044975
470.625 0.042287
471.289 0.041366
471.953 0.043427
472.618 0.042899
473.282 0.047366
473.947 0.047915
474.611 0.046374
475.276 0.050363
475.941 0.049357
476.606 0.050264
477.271 0.046627
477.936 0.049357
478.602 0.049238
479.267 0.050489
479.933 0.051502
480.598 0.053380
481.264 0.052874
481.93 0.053683
482.596 0.052797
483.262 0.052030
483.928 0.053571
484.594 0.058135
485.261 0.061702
485.927 0.175185
486.594 0.147157
487.26 0.105830
487.927 0.064017
488.594 0.055744
489.261 0.053261
489.928 0.054456
490.596 0.052740
491.263 0.054260
491.93 0.051706
492.598 0.052515
493.266 0.051530
493.933 0.051657
494.601 0.054126
495.269 0.052157
495.937 0.051425
496.606 0.058164
497.274 0.054619
497.942 0.049863
498.611 0.051573
499.279 0.054421
499.948 0.056011
500.617 0.052593
501.286 0.053486
501.955 0.056047
502.624 0.056469
503.293 0.056103
503.963 0.056440
504.632 0.051896
505.302 0.053043
505.972 0.051551
506.641 0.055090
507.311 0.050215
507.981 0.049723
508.651 0.051657
509.322 0.049926
509.992 0.049069
510.662 0.049012
511.333 0.048154
512.004 0.048604
512.674 0.045453
513.345 0.047647
514.016 0.045439
514.687 0.046058
515.358 0.041661
516.029 0.041816
516.701 0.044503
517.372 0.044475
518.044 0.041253
518.716 0.040971
519.387 0.042372
520.059 0.041668
520.731 0.038467
521.403 0.039677
522.076 0.037039
522.748 0.039178
523.42 0.036864
524.093 0.039459
524.765 0.039150
525.438 0.038271
526.111 0.037750
526.784 0.037841
527.457 0.038883
528.13 0.037426
528.803 0.042688
529.476 0.040500
530.15 0.039853
530.823 0.038362
531.497 0.037610
532.171 0.039980
532.845 0.039368
533.519 0.045488
534.193 0.045819
534.867 0.047084
535.541 0.046423
536.216 0.044925
536.89 0.040515
537.564 0.041731
538.239 0.045551
538.914 0.047366
539.589 0.048625
540.264 0.047071
540.939 0.046860
541.614 0.047219
542.289 0.048576
542.965 0.048232
543.64 0.049224
544.316 0.051861
544.991 0.052044
545.667 0.050946
546.343 0.047148
547.019 0.047141
547.695 0.052065
548.371 0.057186
549.048 0.054942
549.724 0.049891
550.401 0.051024
551.077 0.046839
551.754 0.045080
552.431 0.054766
553.108 0.051481
553.785 0.053803
554.462 0.050503
555.139 0.051080
555.816 0.055090
556.494 0.056025
557.171 0.051199
557.849 0.052543
558.527 0.049864
559.204 0.047380
559.882 0.048273
560.56 0.056019
561.238 0.062385
561.917 0.059704
562.595 0.057467
563.273 0.057854
563.952 0.058713
564.63 0.061941
565.309 0.064227
565.988 0.063552
566.667 0.065817
567.346 0.075102
568.025 0.083614
568.704 0.093083
569.384 0.110950
570.063 0.142654
570.742 0.150434
571.422 0.173725
572.102 0.189461
572.782 0.168084
573.462 0.180682
574.141 0.209284
574.822 0.226188
575.502 0.229515
576.182 0.203953
576.863 0.228937
577.543 0.242155
578.224 0.307315
578.904 0.256071
579.585 0.244406
580.266 0.253277
580.947 0.248951
581.628 0.375590
582.309 0.371477
582.991 0.292354
583.672 0.234271
584.354 0.227510
585.035 0.257392
585.717 0.277089
586.399 0.239976
587.08 0.242894
587.762 0.259053
588.444 0.232955
589.127 0.206231
589.809 0.185803
590.491 0.170356
591.174 0.150167
591.856 0.147718
592.539 0.162736
593.222 0.223493
593.905 0.214103
594.587 0.187928
595.27 0.214932
595.954 0.194470
596.637 0.160543
597.32 0.161183
598.004 0.158284
598.687 0.163792
599.371 0.199218
600.055 0.194905
600.738 0.196024
601.422 0.200463
602.106 0.181203
602.79 0.181231
603.475 0.199471
604.159 0.188075
604.843 0.168189
605.528 0.172283
606.212 0.185669
606.897 0.164320
607.582 0.169764
608.267 0.160747
608.952 0.151426
609.637 0.139615
610.322 0.158087
611.007 0.145419
611.693 0.144609
612.378 0.135177
613.064 0.135817
613.749 0.134079
614.435 0.133924
615.121 0.131365
615.807 0.137414
616.493 0.121030
617.179 0.111288
617.865 0.113792
618.552 0.107728
619.238 0.095179
619.924 0.097092
620.611 0.099681
621.298 0.079633
621.985 0.082010
622.671 0.088694
623.358 0.091528
624.045 0.091233
624.733 0.094905
625.42 0.087751
626.107 0.080808
626.795 0.073309
627.482 0.075033
628.17 0.068603
628.858 0.060555
629.545 0.064438
630.233 0.063264
630.921 0.059156
631.609 0.053387
632.298 0.053289
632.986 0.048175
633.674 0.045347
634.363 0.046684
635.051 0.042470
635.74 0.041886
636.429 0.046860
637.118 0.046247
637.807 0.042555
638.496 0.044137
639.185 0.042456
639.874 0.039837
640.563 0.038663
641.253 0.036253
641.942 0.033478
642.632 0.030931
643.322 0.030195
644.011 0.030445
644.701 0.028193
645.391 0.027886
646.081 0.027772
646.771 0.026612
647.462 0.024123
648.152 0.030055
648.842 0.033222
649.533 0.034770
650.224 0.031591
650.914 0.029778
651.605 0.029481
652.296 0.031866
652.987 0.033139
653.678 0.033522
654.369 0.034110
655.061 0.056121
655.752 0.832309
656.443 1.000000
657.135 0.924592
657.826 0.565757
658.518 0.425937
659.21 0.341008
659.902 0.110004
660.594 0.033249
661.286 0.024776
661.978 0.023878
662.67 0.022022
663.363 0.022466
664.055 0.022977
664.748 0.022822
665.44 0.024285
666.133 0.024845
666.826 0.021593
667.519 0.022028
668.212 0.021307
668.905 0.020994
669.598 0.022330
670.291 0.022661
670.985 0.023435
671.678 0.029063
672.372 0.035260
673.065 0.034641
673.759 0.031518
674.453 0.029351
675.147 0.026263
675.841 0.026763
676.535 0.025749
677.229 0.024610
677.923 0.029548
678.617 0.030554
679.312 0.032537
680.006 0.035471
680.701 0.035478
681.396 0.035204
682.091 0.033825
682.785 0.031117
683.48 0.031243
684.175 0.034170
684.87 0.038214
685.566 0.045305
686.261 0.044419
686.957 0.043610
687.652 0.044039
688.348 0.040641
689.043 0.037848
689.739 0.037026
690.435 0.034543
691.131 0.036884
691.827 0.037877
692.523 0.039607
693.219 0.039410
693.915 0.038664
694.612 0.033072
695.308 0.036041
696.005 0.030265
696.702 0.034964
697.398 0.040086
698.095 0.038214
698.792 0.037849
699.489 0.035675
700.186 0.032868
700.883 0.031736
701.581 0.029844
702.278 0.029013
702.975 0.031060
703.673 0.030104
704.37 0.028359
705.068 0.025995
705.766 0.023948
706.464 0.029991
707.162 0.037124
707.86 0.038285
708.558 0.037863
709.256 0.034394
709.955 0.035429
710.653 0.035414
711.351 0.032488
712.05 0.030062
712.749 0.029639
713.447 0.032045
714.146 0.034971
714.845 0.034000
715.544 0.036062
716.243 0.032580
716.942 0.029449
717.642 0.028317
718.341 0.029830
719.04 0.029597
719.74 0.030462
720.439 0.028022
721.139 0.031159
721.839 0.031222
722.539 0.028598
723.239 0.028535
723.939 0.029653
724.639 0.026439
725.339 0.031412
726.039 0.033825
726.74 0.034141
727.44 0.032714
728.141 0.034563
728.841 0.035035
729.542 0.036104
730.243 0.037582
730.944 0.041218
731.645 0.043293
732.346 0.042055
733.047 0.044151
733.748 0.044629
734.449 0.052902
735.151 0.049223
735.852 0.048463
736.554 0.048548
737.256 0.049638
737.957 0.045129
738.659 0.041289
739.361 0.046022
740.063 0.044320
740.765 0.039881
741.467 0.035830
742.169 0.033980
742.872 0.035682
743.574 0.032763
744.277 0.029963
744.979 0.030497
745.682 0.028275
746.385 0.029745
747.087 0.029323
747.79 0.032032
748.493 0.029703
749.196 0.030969
749.899 0.036997
750.603 0.040922
751.306 0.039410
752.01 0.040641
752.713 0.038130
753.417 0.037792
754.12 0.043124
754.824 0.040754
755.528 0.042815
756.232 0.046381
756.936 0.051565
757.64 0.059507
758.344 0.059529
759.048 0.054815
759.752 0.060696
760.457 0.064749
761.161 0.062068
761.866 0.053753
762.571 0.049434
763.275 0.049779
763.98 0.050574
764.685 0.057650
765.39 0.057665
766.095 0.052164
766.8 0.041500
767.505 0.038903
768.211 0.041858
768.916 0.048991
769.621 0.047007
770.327 0.045333
771.033 0.047148
771.738 0.046600
772.444 0.041218
773.15 0.041105
773.856 0.038404
774.562 0.034767
775.268 0.031531
775.974 0.027994
776.68 0.026692
777.387 0.024905
778.093 0.025812
778.8 0.028788
779.506 0.032249
780.213 0.030005
780.92 0.030814
781.626 0.035077
782.333 0.034986
783.04 0.033431
783.747 0.034880
784.455 0.031553
785.162 0.029316
785.869 0.029569
786.577 0.029808
787.284 0.028809
787.992 0.030589
788.699 0.031433
789.407 0.030364
790.115 0.026235
790.823 0.025187
791.531 0.024385
792.239 0.022914
792.947 0.022471
793.655 0.023252
794.363 0.031672
795.072 0.033114
795.78 0.029597
796.489 0.024772
797.197 0.021754
797.906 0.023555
798.615 0.022872
799.323 0.023906
800.032 0.020629
800.741 0.020044
801.45 0.019834
802.159 0.017990
802.869 0.017456
803.578 0.019264
804.287 0.017357
804.997 0.017484
805.706 0.018602
806.416 0.023435
807.126 0.024223
807.835 0.023062
808.545 0.023077
809.255 0.022704
809.965 0.018680
810.675 0.019587
811.385 0.018525
812.096 0.016647
812.806 0.014460
813.516 0.016225
814.227 0.019404
814.937 0.018138
815.648 0.015543
816.359 0.013474
817.069 0.014184
817.78 0.014719
818.491 0.014171
819.202 0.013165
819.913 0.012666
820.624 0.014585
821.336 0.015887
822.047 0.013847
822.758 0.013728
823.47 0.012412
824.181 0.010161
824.893 0.011659
825.605 0.013045
826.317 0.013559
827.028 0.013291
827.74 0.013981
828.452 0.012588
829.164 0.012933
829.876 0.011941
830.589 0.011470
831.301 0.009092
832.013 0.007959
832.726 0.008649
833.438 0.009155
834.151 0.010647
834.864 0.010695
835.577 0.011301
836.289 0.009880
837.002 0.008240
837.715 0.007551
838.428 0.006911
839.141 0.006208
839.855 0.007952
840.568 0.006510
841.281 0.007565
841.995 0.006616
842.708 0.005610
843.422 0.004829
844.135 0.005504
844.849 0.005673
845.563 0.005153
846.277 0.005476
846.991 0.004133
847.705 0.006412
848.419 0.004766
849.133 0.005033
849.847 0.005082
850.562 0.003851
851.276 0.005314
851.991 0.005413
852.705 0.008114
853.42 0.013510
854.135 0.013024
854.85 0.014431
855.564 0.012250
856.279 0.012729
856.994 0.011694
857.709 0.011441
858.424 0.010414
859.14 0.008817
859.855 0.008234
860.57 0.007038
861.286 0.007460
862.001 0.005765
862.717 0.006264
863.433 0.006933
864.148 0.007129
864.864 0.005997
865.58 0.005089
866.296 0.004998
867.012 0.005983
867.728 0.005659
868.444 0.004977
869.161 0.005012
869.877 0.005336
870.593 0.005856
871.31 0.006426
872.026 0.004998
872.743 0.004597
873.46 0.005455
874.176 0.005258
874.893 0.004625
875.61 0.005307
876.327 0.006292
877.044 0.005026
877.761 0.006201
878.478 0.006953
879.196 0.006623
879.913 0.007467
880.63 0.007664
881.348 0.008150
882.065 0.006292
882.783 0.006630
883.501 0.006827
884.218 0.007101
884.936 0.006018
885.654 0.007010
886.372 0.006567
887.09 0.005377
887.808 0.005455
888.527 0.005096
889.245 0.004625
889.963 0.005427
890.682 0.004710
891.4 0.004513
892.119 0.005807
892.837 0.005061
893.556 0.005716
894.275 0.004090
894.994 0.004695
895.712 0.004843
896.431 0.005033
897.15 0.005110
897.87 0.004794
898.589 0.004618
899.308 0.004786
900.027 0.003837
900.747 0.004941
901.466 0.003795
902.186 0.004681
902.905 0.004414
903.625 0.003429
904.345 0.004273
905.064 0.005111
905.784 0.005540
906.504 0.004548
907.224 0.003992
907.944 0.003781
908.664 0.003894
909.385 0.004344
910.105 0.003739
910.825 0.004217
911.546 0.004006
912.266 0.004625
912.987 0.004350
913.707 0.003844
914.428 0.003127
915.149 0.003401
915.87 0.002909
916.591 0.004386
917.312 0.003457
918.033 0.004020
918.754 0.003753
919.475 0.003619
920.196 0.003605
920.918 0.004231
921.639 0.003338
922.361 0.003894
923.082 0.003718
923.804 0.002585
924.525 0.002564
925.247 0.002634
925.969 0.002944
926.691 0.002360
927.413 0.002880
928.135 0.003099
928.857 0.002156
929.579 0.003922
930.301 0.001192
931.023 0.002029
931.746 0.001678
932.468 0.002240
933.191 0.001614
933.913 0.002114
934.636 0.002873
935.358 0.002381
936.081 0.001692
936.804 0.001558
937.527 0.002240
938.25 0.001678
938.973 0.001551
939.696 0.001600
940.419 0.001762
941.142 0.001431
941.865 0.001903
942.589 0.001059
943.312 0.001143
944.036 0.000489
944.759 0.001509
945.483 0.000707
946.207 0.001424
946.93 0.000840
947.654 0.002297
948.378 0.001094
949.102 0.001840
949.826 0.000728
950.55 0.001002
951.274 0.000939
951.998 0.001150
952.723 0.001291
953.447 0.001326
954.171 0.001270
954.896 0.001031
955.62 0.000236
956.345 0.001094
957.07 0.000489
957.794 0.002051
958.519 0.000742
959.244 0.000299
959.969 0.000784
960.694 0.001241
961.419 0.000658
962.144 0.000777
962.869 0.000932
963.594 0.000545
964.32 0.000601
965.045 0.001488
965.77 0.000278
966.496 0.000897
967.222 0.000763
967.947 0.000981
968.673 -0.000004
969.399 0.000812
970.125 0.000383
970.85 0.000714
971.576 0.001002
972.302 0.000721
973.028 0.000932
973.755 0.000756
974.481 0.001220
975.207 0.001403
975.933 0.000609
976.66 0.000243
977.386 0.001206
978.113 0.000552
978.839 -0.000144
979.566 0.000918
980.293 0.000742
981.019 0.001031
981.746 0.000658
982.473 0.000784
983.2 0.000376
983.927 0.000137
984.654 -0.000524
985.381 0.001242
986.109 0.000545
986.836 0.000721
987.563 -0.000320
988.291 0.001143
989.018 0.000946
989.746 0.000046
990.473 0.000166
991.201 0.000292
991.928 -0.000003
992.656 -0.000032
993.384 0.000025
994.112 0.000102
994.84 0.001333
995.568 -0.000672
996.296 -0.000567
997.024 0.000855
997.752 0.000580
998.481 0.000664
999.209 0.000067
999.937 0.000088
1000.67 0.000770
1001.39 0.000285
1002.12 0.000201
1002.85 -0.000313
1003.58 -0.000285
1004.31 0.000278
1005.04 0.000883
1005.77 0.000587
1006.5 0.000067
1007.22 -0.000222
1007.95 -0.000201
1008.68 0.000292
1009.41 0.000095
1010.14 0.000440
1010.87 0.000981
1011.6 -0.000060
1012.33 0.000144
1013.06 -0.000144
1013.79 0.000151
1014.52 -0.000208
1015.25 -0.000489
1015.98 -0.000341
1016.71 -0.000489
1017.44 0.000595
1018.17 -0.000179
1018.9 -0.000292
1019.63 0.000953
1020.36 0.000172
1021.09 0.000074
1021.82 -0.000285
1022.55 -0.000531
1023.03 0.000017