File: Auto_Polymerization/Data/UV_VIS_Spectra/MRG-061-F-3_pure_compounds_spectra_test/DMSO+Anisole_spectrum_average.txt
# Wavelength	Average Intensity
197.78 0.000842
198.392 0.000343
199.004 0.001038
199.617 0.000546
200.229 0.000912
200.842 0.001011
201.455 0.000610
202.067 0.000617
202.68 0.000476
203.294 -0.000087
203.907 0.000968
204.52 0.000202
205.134 0.000054
205.748 0.000532
206.361 0.000553
206.975 0.000293
207.589 0.001046
208.204 0.000532
208.818 0.000546
209.433 0.000335
210.047 0.000343
210.662 -0.000522
211.277 0.000630
211.892 0.000384
212.507 0.000961
213.122 -0.000614
213.738 0.000891
214.353 -0.000439
214.969 0.000715
215.585 -0.000087
216.201 0.000848
216.817 0.000124
217.433 0.000321
218.049 0.000314
218.666 0.000933
219.282 0.000567
219.899 0.000314
220.516 0.000426
221.133 0.000525
221.75 0.000258
222.368 0.000384
222.985 0.000018
223.603 0.000982
224.22 0.000610
224.838 0.000244
225.456 0.000265
226.074 0.000385
226.692 -0.000101
227.311 0.000187
227.929 0.000968
228.548 0.000441
229.167 0.000624
229.786 0.000146
230.405 0.000490
231.024 0.000631
231.643 0.000701
232.262 -0.000396
232.882 0.000623
233.501 0.000708
234.121 -0.000642
234.741 0.000729
235.361 0.001291
235.982 0.000096
236.602 -0.000375
237.222 0.000012
237.843 0.000406
238.464 0.000793
239.084 0.000806
239.706 0.000870
240.327 -0.000453
240.948 0.000813
241.569 0.000216
242.191 0.000862
242.812 -0.000115
243.434 0.000349
244.056 0.000237
244.678 0.000230
245.3 0.000377
245.923 0.001207
246.545 0.000363
247.167 0.000982
247.79 -0.000066
248.413 0.001362
249.036 0.000462
249.659 0.000152
250.282 -0.000185
250.906 0.001728
251.529 0.000356
252.153 0.000750
252.776 0.000173
253.4 0.000807
254.024 -0.000551
254.648 0.000581
255.273 0.000448
255.897 0.001179
256.521 0.000272
257.146 0.001130
257.771 0.000448
258.396 0.000215
259.021 -0.000389
259.646 0.000180
260.271 0.000532
260.897 0.000891
261.522 -0.000319
262.148 0.001045
262.774 0.000828
263.399 0.000609
264.026 0.000216
264.652 0.000806
265.278 0.000363
265.904 0.000314
266.531 -0.000052
267.158 0.000835
267.784 0.000441
268.411 0.001292
269.038 0.000413
269.666 0.000996
270.293 0.000342
270.921 0.000237
271.548 -0.000579
272.176 0.000476
272.804 0.000771
273.432 0.000441
274.06 0.000673
274.688 0.001101
275.316 0.000033
275.945 0.000547
276.573 0.000630
277.202 0.000279
277.831 0.000884
278.46 0.000729
279.089 0.001123
279.718 0.000848
280.348 0.000406
280.977 0.000933
281.607 0.000237
282.237 0.000384
282.866 0.000335
283.497 0.000877
284.127 0.000349
284.757 0.000954
285.387 0.000609
286.018 0.000553
286.648 0.000328
287.279 0.000483
287.91 0.000469
288.541 -0.000115
289.172 0.000448
289.803 0.001411
290.435 0.000124
291.067 0.000729
291.698 0.000251
292.33 0.000546
292.962 0.000490
293.594 0.000251
294.226 -0.000143
294.858 0.000694
295.491 -0.000009
296.123 0.000132
296.756 0.000828
297.389 0.000328
298.022 0.001003
298.654 0.000609
299.288 0.000616
299.921 0.000820
300.554 0.000244
301.188 0.001081
301.822 0.000898
302.455 0.001657
303.089 0.000447
303.723 0.001214
304.357 0.000926
304.992 0.000645
305.626 -0.000277
306.261 -0.000206
306.895 0.000849
307.53 0.000863
308.165 0.000806
308.8 0.000954
309.435 0.000687
310.07 0.000982
310.706 0.000138
311.341 0.000884
311.977 0.000743
312.613 0.001053
313.249 0.001313
313.885 0.002157
314.521 0.000399
315.157 0.001960
315.793 0.001095
316.43 0.002030
317.067 0.001538
317.703 0.001411
318.34 0.001186
318.977 0.002065
319.614 0.001896
320.252 0.001721
320.889 0.001700
321.526 0.002241
322.164 0.001573
322.802 0.002150
323.44 0.002065
324.078 0.003177
324.716 0.001636
325.354 0.003367
325.992 0.003254
326.631 0.002206
327.269 0.003156
327.908 0.003001
328.547 0.002424
329.186 0.002994
329.825 0.002952
330.464 0.003817
331.104 0.003078
331.743 0.003753
332.383 0.002965
333.022 0.003915
333.662 0.003564
334.302 0.003887
334.942 0.004675
335.582 0.004942
336.223 0.004998
336.863 0.005153
337.504 0.004646
338.144 0.004626
338.785 0.004541
339.426 0.005406
340.067 0.004879
340.708 0.005624
341.349 0.005470
341.991 0.006117
342.632 0.005807
343.274 0.006391
343.916 0.005252
344.558 0.006918
345.2 0.006680
345.842 0.007425
346.484 0.006911
347.126 0.007066
347.769 0.006433
348.411 0.007094
349.054 0.006750
349.697 0.007945
350.34 0.007122
350.983 0.008395
351.626 0.007840
352.27 0.008409
352.913 0.008311
353.557 0.008923
354.2 0.008944
354.844 0.009535
355.488 0.008557
356.132 0.009457
356.776 0.009507
357.421 0.008227
358.065 0.009429
358.709 0.010344
359.354 0.009035
359.999 0.010062
360.644 0.010259
361.289 0.010175
361.934 0.009612
362.579 0.010168
363.224 0.011019
363.87 0.011061
364.515 0.009683
365.161 0.010547
365.807 0.010358
366.453 0.011265
367.099 0.011519
367.745 0.012074
368.392 0.012011
369.038 0.011511
369.685 0.011624
370.331 0.012742
370.978 0.012313
371.625 0.012693
372.272 0.013495
372.919 0.013122
373.566 0.013881
374.214 0.013952
374.861 0.015766
375.509 0.016083
376.156 0.015858
376.804 0.016639
377.452 0.016751
378.1 0.017750
378.748 0.018263
379.397 0.018706
380.045 0.018594
380.694 0.019473
381.342 0.018446
381.991 0.018988
382.64 0.021126
383.289 0.021126
383.938 0.020197
384.587 0.021702
385.237 0.022195
385.886 0.022722
386.536 0.022131
387.186 0.021787
387.836 0.024115
388.485 0.023960
389.135 0.024361
389.786 0.023967
390.436 0.023714
391.086 0.025156
391.737 0.025184
392.387 0.028546
393.038 0.029966
393.689 0.027794
394.34 0.028131
394.991 0.029833
395.642 0.027941
396.294 0.029024
396.945 0.030508
397.597 0.031036
398.248 0.032977
398.9 0.033687
399.552 0.032590
400.204 0.031985
400.856 0.031626
401.509 0.031458
402.161 0.033145
402.813 0.031493
403.466 0.032168
404.119 0.033082
404.772 0.033083
405.425 0.034468
406.078 0.033997
406.731 0.032034
407.384 0.031810
408.038 0.030994
408.691 0.033392
409.345 0.034306
409.998 0.033547
410.652 0.031746
411.306 0.033033
411.961 0.032329
412.615 0.035214
413.269 0.034264
413.923 0.035270
414.578 0.034461
415.233 0.033364
415.887 0.033624
416.542 0.034299
417.197 0.033483
417.852 0.035192
418.508 0.034285
419.163 0.037282
419.818 0.036290
420.474 0.037014
421.13 0.039955
421.786 0.043421
422.442 0.040981
423.098 0.040503
423.754 0.042106
424.41 0.039258
425.066 0.038758
425.723 0.037085
426.379 0.035326
427.036 0.037394
427.693 0.039891
428.35 0.039328
429.007 0.038055
429.664 0.043372
430.321 0.044983
430.979 0.043999
431.636 0.039216
432.294 0.036367
432.952 0.037443
433.609 0.042479
434.267 0.043210
434.925 0.040214
435.584 0.039884
436.242 0.041438
436.9 0.042339
437.559 0.041916
438.217 0.042078
438.876 0.043633
439.535 0.042289
440.194 0.042148
440.853 0.043098
441.512 0.051580
442.171 0.052059
442.831 0.049456
443.49 0.049583
444.15 0.051728
444.81 0.051137
445.469 0.051461
446.129 0.049843
446.789 0.050406
447.45 0.050518
448.11 0.048619
448.77 0.048514
449.431 0.050082
450.091 0.048127
450.752 0.047775
451.413 0.045074
452.074 0.047297
452.735 0.048760
453.396 0.045137
454.057 0.044040
454.719 0.042444
455.38 0.045785
456.042 0.046432
456.704 0.044463
457.365 0.045679
458.027 0.046945
458.689 0.049639
459.352 0.048788
460.014 0.049337
460.676 0.046945
461.339 0.048605
462.001 0.044702
462.664 0.044462
463.327 0.047001
463.99 0.048099
464.653 0.052537
465.316 0.054049
465.979 0.056651
466.642 0.049829
467.306 0.045265
467.97 0.046059
468.633 0.044040
469.297 0.043949
469.961 0.040073
470.625 0.038224
471.289 0.039912
471.953 0.040362
472.618 0.041164
473.282 0.044216
473.947 0.044863
474.611 0.042999
475.276 0.047663
475.941 0.046720
476.606 0.045820
477.271 0.042043
477.936 0.045918
478.602 0.045524
479.267 0.045736
479.933 0.046453
480.598 0.049934
481.264 0.048950
481.93 0.052164
482.596 0.049618
483.262 0.048521
483.928 0.049808
484.594 0.056461
485.261 0.056258
485.927 0.178391
486.594 0.125613
487.26 0.096017
487.927 0.058445
488.594 0.051243
489.261 0.051003
489.928 0.050412
490.596 0.050040
491.263 0.051250
491.93 0.048570
492.598 0.050504
493.266 0.048894
493.933 0.050884
494.601 0.050546
495.269 0.047670
495.937 0.048225
496.606 0.055723
497.274 0.050146
497.942 0.047782
498.611 0.048239
499.279 0.051249
499.948 0.051932
500.617 0.049969
501.286 0.051601
501.955 0.052038
502.624 0.053817
503.293 0.051461
503.963 0.052473
504.632 0.049105
505.302 0.048746
505.972 0.048415
506.641 0.050694
507.311 0.046319
507.981 0.047227
508.651 0.047888
509.322 0.045271
509.992 0.045567
510.662 0.045996
511.333 0.046811
512.004 0.045440
512.674 0.042999
513.345 0.044273
514.016 0.042985
514.687 0.041488
515.358 0.039504
516.029 0.041445
516.701 0.042521
517.372 0.040855
518.044 0.038991
518.716 0.038358
519.387 0.040306
520.059 0.039673
520.731 0.036817
521.403 0.036888
522.076 0.035938
522.748 0.036353
523.42 0.035382
524.093 0.036529
524.765 0.035214
525.438 0.035319
526.111 0.036782
526.784 0.036613
527.457 0.036684
528.13 0.035860
528.803 0.039054
529.476 0.038681
530.15 0.036958
530.823 0.036339
531.497 0.036360
532.171 0.036803
532.845 0.038168
533.519 0.042676
534.193 0.041614
534.867 0.044371
535.541 0.043795
536.216 0.042113
536.89 0.039384
537.564 0.039574
538.239 0.043830
538.914 0.042810
539.589 0.043977
540.264 0.043105
540.939 0.044132
541.614 0.044505
542.289 0.046481
542.965 0.045475
543.64 0.046713
544.316 0.048626
544.991 0.048387
545.667 0.046087
546.343 0.044125
547.019 0.045637
547.695 0.049006
548.371 0.054844
549.048 0.050863
549.724 0.047438
550.401 0.046137
551.077 0.042704
551.754 0.043787
552.431 0.050856
553.108 0.049301
553.785 0.052122
554.462 0.048612
555.139 0.046664
555.816 0.051165
556.494 0.051566
557.171 0.048999
557.849 0.049738
558.527 0.047192
559.204 0.045517
559.882 0.046425
560.56 0.054035
561.238 0.058403
561.917 0.054752
562.595 0.052122
563.273 0.056356
563.952 0.056546
564.63 0.059479
565.309 0.060238
565.988 0.059380
566.667 0.062362
567.346 0.073060
568.025 0.077385
568.704 0.089230
569.384 0.106026
570.063 0.136205
570.742 0.137908
571.422 0.164543
572.102 0.177730
572.782 0.149984
573.462 0.174446
574.141 0.199147
574.822 0.212215
575.502 0.214655
576.182 0.191530
576.863 0.215282
577.543 0.230150
578.224 0.282647
578.904 0.233006
579.585 0.232027
580.266 0.239230
580.947 0.234912
581.628 0.359113
582.309 0.340166
582.991 0.265014
583.672 0.215999
584.354 0.217490
585.035 0.246214
585.717 0.256314
586.399 0.220895
587.08 0.230635
587.762 0.243471
588.444 0.212348
589.127 0.185453
589.809 0.172701
590.491 0.158227
591.174 0.139561
591.856 0.139322
592.539 0.161047
593.222 0.210900
593.905 0.200512
594.587 0.174967
595.27 0.203367
595.954 0.177364
596.637 0.147797
597.32 0.152558
598.004 0.146580
598.687 0.158206
599.371 0.186178
600.055 0.186473
600.738 0.183153
601.422 0.184961
602.106 0.169678
602.79 0.170704
603.475 0.188428
604.159 0.173110
604.843 0.156068
605.528 0.164395
606.212 0.172096
606.897 0.155631
607.582 0.157538
608.267 0.147536
608.952 0.140531
609.637 0.129974
610.322 0.148612
611.007 0.137886
611.693 0.137387
612.378 0.128659
613.064 0.127815
613.749 0.123799
614.435 0.126563
615.121 0.126267
615.807 0.126830
616.493 0.112510
617.179 0.108684
617.865 0.109275
618.552 0.099878
619.238 0.088576
619.924 0.090658
620.611 0.091684
621.298 0.073700
621.985 0.078433
622.671 0.080853
623.358 0.088857
624.045 0.084243
624.733 0.088927
625.42 0.080382
626.107 0.075761
626.795 0.067890
627.482 0.069881
628.17 0.061975
628.858 0.056827
629.545 0.061842
630.233 0.057707
630.921 0.054359
631.609 0.051299
632.298 0.050391
632.986 0.043949
633.674 0.043703
634.363 0.041438
635.051 0.040087
635.74 0.039680
636.429 0.045061
637.118 0.043422
637.807 0.039089
638.496 0.041628
639.185 0.040488
639.874 0.037606
640.563 0.035716
641.253 0.033910
641.942 0.031360
642.632 0.028730
643.322 0.028206
644.011 0.028992
644.701 0.026643
645.391 0.026570
646.081 0.025535
646.771 0.024476
647.462 0.024934
648.152 0.028531
648.842 0.032515
649.533 0.033304
650.224 0.029688
650.914 0.027799
651.605 0.029153
652.296 0.032081
652.987 0.031183
653.678 0.031346
654.369 0.032639
655.061 0.059286
655.752 0.935285
656.443 1.000000
657.135 0.828557
657.826 0.504648
658.518 0.384111
659.21 0.299613
659.902 0.081002
660.594 0.028728
661.286 0.022984
661.978 0.021337
662.67 0.021228
663.363 0.020102
664.055 0.022136
664.748 0.021589
665.44 0.023879
666.133 0.022506
666.826 0.020587
667.519 0.021239
668.212 0.020119
668.905 0.020296
669.598 0.019086
670.291 0.021238
670.985 0.020824
671.678 0.028546
672.372 0.033427
673.065 0.032055
673.759 0.028525
674.453 0.027048
675.147 0.025648
675.841 0.024551
676.535 0.024192
677.229 0.022518
677.923 0.028616
678.617 0.029383
679.312 0.031437
680.006 0.033990
680.701 0.032928
681.396 0.035143
682.091 0.032035
682.785 0.028672
683.48 0.030234
684.175 0.031451
684.87 0.038175
685.566 0.043126
686.261 0.042549
686.957 0.042479
687.652 0.042507
688.348 0.037957
689.043 0.034137
689.739 0.034771
690.435 0.032865
691.131 0.036037
691.827 0.035376
692.523 0.036219
693.219 0.037521
693.915 0.037049
694.612 0.031409
695.308 0.035263
696.005 0.029095
696.702 0.034728
697.398 0.037640
698.095 0.037682
698.792 0.035066
699.489 0.033927
700.186 0.031971
700.883 0.030009
701.581 0.027997
702.278 0.028968
702.975 0.030128
703.673 0.027702
704.37 0.027759
705.068 0.023109
705.766 0.023207
706.464 0.030220
707.162 0.035565
707.86 0.036050
708.558 0.036437
709.256 0.032576
709.955 0.033392
710.653 0.034623
711.351 0.030037
712.05 0.027167
712.749 0.027709
713.447 0.030339
714.146 0.034060
714.845 0.033272
715.544 0.033371
716.243 0.030480
716.942 0.027702
717.642 0.026457
718.341 0.028743
719.04 0.028426
719.74 0.028377
720.439 0.027301
721.139 0.030367
721.839 0.028947
722.539 0.027786
723.239 0.026731
723.939 0.027590
724.639 0.025958
725.339 0.029974
726.039 0.032379
726.74 0.031985
727.44 0.031704
728.141 0.032555
728.841 0.032084
729.542 0.034946
730.243 0.034805
730.944 0.040672
731.645 0.042493
732.346 0.039631
733.047 0.040643
733.748 0.043752
734.449 0.050603
735.151 0.046678
735.852 0.045827
736.554 0.045504
737.256 0.047360
737.957 0.041930
738.659 0.038604
739.361 0.043738
740.063 0.041952
740.765 0.037823
741.467 0.034581
742.169 0.033202
742.872 0.034545
743.574 0.030579
744.277 0.029102
744.979 0.029812
745.682 0.027877
746.385 0.027448
747.087 0.029334
747.79 0.029249
748.493 0.027568
749.196 0.029805
749.899 0.036156
750.603 0.038526
751.306 0.036402
752.01 0.039068
752.713 0.037063
753.417 0.036107
754.12 0.040932
754.824 0.038969
755.528 0.039884
756.232 0.042866
756.936 0.048887
757.64 0.056799
758.344 0.055864
759.048 0.052058
759.752 0.058121
760.457 0.061244
761.161 0.059507
761.866 0.050279
762.571 0.046326
763.275 0.047269
763.98 0.047191
764.685 0.054921
765.39 0.055209
766.095 0.047156
766.8 0.040390
767.505 0.036817
768.211 0.040130
768.916 0.046017
769.621 0.045208
770.327 0.043365
771.033 0.045989
771.738 0.043872
772.444 0.039539
773.15 0.037528
773.856 0.037626
774.562 0.031317
775.268 0.028490
775.974 0.026443
776.68 0.024692
777.387 0.023869
778.093 0.025402
778.8 0.026717
779.506 0.030241
780.213 0.026506
780.92 0.028918
781.626 0.034053
782.333 0.034489
783.04 0.032506
783.747 0.032935
784.455 0.030881
785.162 0.027399
785.869 0.027991
786.577 0.026738
787.284 0.026956
787.992 0.029411
788.699 0.030079
789.407 0.028898
790.115 0.025416
790.823 0.024122
791.531 0.023166
792.239 0.022610
792.947 0.021674
793.655 0.022779
794.363 0.029678
795.072 0.031409
795.78 0.029116
796.489 0.022511
797.197 0.021752
797.906 0.023292
798.615 0.022146
799.323 0.021780
800.032 0.018896
800.741 0.018094
801.45 0.017405
802.159 0.016540
802.869 0.016878
803.578 0.017750
804.287 0.016793
804.997 0.016765
805.706 0.017750
806.416 0.022800
807.126 0.022758
807.835 0.020992
808.545 0.021780
809.255 0.022054
809.965 0.019867
810.675 0.018573
811.385 0.017412
812.096 0.016118
812.806 0.014416
813.516 0.016322
814.227 0.018551
814.937 0.017025
815.648 0.015028
816.359 0.013797
817.069 0.014965
817.78 0.013642
818.491 0.014064
819.202 0.012046
819.913 0.011975
820.624 0.014599
821.336 0.015056
822.047 0.012946
822.758 0.012193
823.47 0.011363
824.181 0.011047
824.893 0.011082
825.605 0.012636
826.317 0.011905
827.028 0.013009
827.74 0.013326
828.452 0.012151
829.164 0.012222
829.876 0.011026
830.589 0.009788
831.301 0.008930
832.013 0.008191
832.726 0.008670
833.438 0.008698
834.151 0.010372
834.864 0.009929
835.577 0.009485
836.289 0.008916
837.002 0.008677
837.715 0.006630
838.428 0.006982
839.141 0.006729
839.855 0.008135
840.568 0.006960
841.281 0.006461
841.995 0.006067
842.708 0.005934
843.422 0.004844
844.135 0.005611
844.849 0.005715
845.563 0.004991
846.277 0.005322
846.991 0.004759
847.705 0.005477
848.419 0.004527
849.133 0.003732
849.847 0.005322
850.562 0.004555
851.276 0.004386
851.991 0.005371
852.705 0.008867
853.42 0.012685
854.135 0.013733
854.85 0.013094
855.564 0.012749
856.279 0.011975
856.994 0.011455
857.709 0.010224
858.424 0.010386
859.14 0.008044
859.855 0.008768
860.57 0.006784
861.286 0.007481
862.001 0.006996
862.717 0.006651
863.433 0.007101
864.148 0.005800
864.864 0.005301
865.58 0.006102
866.296 0.004246
867.012 0.005259
867.728 0.005315
868.444 0.006250
869.161 0.004035
869.877 0.004766
870.593 0.004928
871.31 0.006103
872.026 0.004598
872.743 0.004449
873.46 0.004401
874.176 0.004633
874.893 0.004633
875.61 0.007059
876.327 0.005920
877.044 0.004822
877.761 0.006405
878.478 0.007045
879.196 0.006939
879.913 0.007791
880.63 0.007439
881.348 0.008058
882.065 0.006806
882.783 0.006419
883.501 0.005835
884.218 0.005709
884.936 0.005519
885.654 0.006911
886.372 0.006532
887.09 0.005660
887.808 0.005976
888.527 0.005906
889.245 0.006433
889.963 0.004612
890.682 0.004731
891.4 0.005645
892.119 0.005934
892.837 0.004400
893.556 0.005336
894.275 0.004323
894.994 0.004161
895.712 0.004703
896.431 0.005687
897.15 0.005406
897.87 0.005765
898.589 0.004225
899.308 0.003943
900.027 0.003240
900.747 0.004872
901.466 0.003781
902.186 0.004365
902.905 0.003606
903.625 0.004175
904.345 0.004429
905.064 0.004028
905.784 0.004429
906.504 0.005378
907.224 0.004337
907.944 0.004879
908.664 0.003937
909.385 0.004302
910.105 0.003402
910.825 0.004189
911.546 0.002980
912.266 0.004049
912.987 0.003718
913.707 0.003346
914.428 0.003536
915.149 0.004239
915.87 0.002987
916.591 0.004077
917.312 0.004035
918.033 0.004119
918.754 0.003796
919.475 0.004647
920.196 0.003296
920.918 0.002684
921.639 0.003402
922.361 0.003282
923.082 0.002523
923.804 0.003760
924.525 0.003156
925.247 0.002466
925.969 0.002839
926.691 0.001840
927.413 0.002473
928.135 0.002860
928.857 0.001819
929.579 0.002121
930.301 0.001981
931.023 0.002375
931.746 0.002438
932.468 0.002614
933.191 0.002065
933.913 0.003331
934.636 0.001826
935.358 0.002924
936.081 0.001622
936.804 0.002333
937.527 0.002192
938.25 0.000813
938.973 0.002058
939.696 0.001897
940.419 0.001172
941.142 0.001798
941.865 0.001742
942.589 0.000898
943.312 0.001468
944.036 0.001369
944.759 0.001327
945.483 0.000377
946.207 0.000863
946.93 0.000061
947.654 0.001643
948.378 0.001657
949.102 0.001876
949.826 0.001088
950.55 0.001883
951.274 0.001629
951.998 0.001193
952.723 0.001517
953.447 0.002734
954.171 0.001165
954.896 0.002150
955.62 0.001953
956.345 0.001242
957.07 0.000834
957.794 0.001172
958.519 0.001425
959.244 0.001348
959.969 0.000455
960.694 0.001636
961.419 0.000813
962.144 0.001031
962.869 0.000652
963.594 0.001285
964.32 0.000750
965.045 0.000673
965.77 0.000891
966.496 0.000926
967.222 0.001053
967.947 0.000335
968.673 -0.000059
969.399 0.000996
970.125 0.000215
970.85 0.000518
971.576 0.001088
972.302 0.001200
973.028 0.000138
973.755 0.001559
974.481 0.000616
975.207 0.000406
975.933 0.000208
976.66 0.000701
977.386 0.000237
978.113 0.000729
978.839 0.000778
979.566 0.000757
980.293 0.000462
981.019 0.000553
981.746 -0.000003
982.473 0.000820
983.2 0.000455
983.927 0.000827
984.654 0.000124
985.381 0.001355
986.109 0.000666
986.836 0.000307
987.563 -0.000227
988.291 0.000884
989.018 -0.000185
989.746 0.000012
990.473 -0.000523
991.201 0.000708
991.928 0.000870
992.656 0.001243
993.384 -0.000171
994.112 0.000919
994.84 0.000406
995.568 0.000363
996.296 0.000005
997.024 0.000792
997.752 0.000335
998.481 0.000377
999.209 -0.000600
999.937 -0.000030
1000.67 0.000455
1001.39 0.000103
1002.12 0.000251
1002.85 0.000068
1003.58 0.000363
1004.31 0.000026
1005.04 0.000631
1005.77 0.000138
1006.5 0.000877
1007.22 0.000103
1007.95 0.001264
1008.68 -0.000017
1009.41 0.000806
1010.14 -0.000270
1010.87 0.000539
1011.6 0.000187
1012.33 0.000216
1013.06 0.000996
1013.79 0.000237
1014.52 0.000131
1015.25 0.000982
1015.98 0.000652
1016.71 0.001496
1017.44 0.000406
1018.17 0.001123
1018.9 0.001017
1019.63 0.000434
1020.36 0.000096
1021.09 0.000863
1021.82 -0.000396
1022.55 -0.000206
1023.03 -0.000389