File: Auto_Polymerization/Data/UV_VIS_Spectra/MRG-061-F-3_pure_compounds_spectra_test/DMSO+AIBN_spectrum_2025-06-19_14-42-43.txt
# Wavelength (nm)	Intensity (a.u.)
197.7802	0.001033
198.3922	0.001012
199.0044	0.001413
199.6168	0.000295
200.2292	0.000337
200.8418	0.000654
201.4546	0.001856
202.0674	0.000443
202.6805	0.002151
203.2936	0.000970
203.9069	0.001202
204.5203	0.001413
205.1338	0.001371
205.7475	0.000021
206.3614	0.001582
206.9753	0.000169
207.5894	0.000359
208.2036	0.000949
208.8180	0.001476
209.4325	0.000295
210.0471	0.001519
210.6618	0.000084
211.2767	0.002320
211.8918	-0.000823
212.5069	0.001223
213.1222	-0.000042
213.7376	0.003121
214.3532	0.000464
214.9689	0.001371
215.5847	0.000823
216.2007	0.002236
216.8168	0.000337
217.4330	0.001139
218.0494	0.001371
218.6659	0.002109
219.2825	0.000485
219.8992	0.001455
220.5161	0.000359
221.1332	0.001097
221.7503	0.000443
222.3676	0.000928
222.9850	0.001666
223.6026	0.001287
224.2203	0.000591
224.8381	0.002193
225.4561	0.000190
226.0742	0.001308
226.6924	0.000633
227.3107	0.001519
227.9292	0.001350
228.5478	0.001898
229.1666	0.000970
229.7855	0.000380
230.4045	0.000759
231.0236	0.002257
231.6429	0.000907
232.2623	0.002657
232.8818	0.000084
233.5015	0.000105
234.1213	0.001287
234.7413	0.001160
235.3613	0.000548
235.9815	0.000042
236.6018	0.000232
237.2223	0.001371
237.8429	-0.000190
238.4636	0.001540
239.0845	0.000464
239.7055	0.001582
240.3266	0.000042
240.9478	0.000401
241.5692	0.000612
242.1907	0.000696
242.8124	0.000127
243.4341	0.001308
244.0560	0.001687
244.6781	0.001413
245.3002	0.000759
245.9225	0.000548
246.5449	0.002552
247.1675	-0.000169
247.7902	0.001455
248.4130	0.000823
249.0359	0.000527
249.6590	0.001244
250.2822	0.001287
250.9056	0.001076
251.5290	0.000569
252.1526	0.001982
252.7763	0.001308
253.4002	0.001687
254.0242	0.001751
254.6483	0.002193
255.2725	0.000823
255.8969	0.001287
256.5214	0.000169
257.1460	0.000759
257.7708	0.001118
258.3957	0.002805
259.0207	-0.000337
259.6459	0.000801
260.2711	0.001055
260.8965	-0.000042
261.5221	0.000886
262.1477	0.001898
262.7735	-0.000443
263.3995	0.001940
264.0255	0.000211
264.6517	0.000886
265.2780	0.000190
265.9044	0.002130
266.5310	-0.000337
267.1577	0.001561
267.7845	0.000886
268.4114	-0.000380
269.0385	0.000084
269.6657	0.000169
270.2931	0.000886
270.9205	0.002383
271.5481	0.000105
272.1758	0.001434
272.8037	-0.000232
273.4316	0.001097
274.0597	0.000970
274.6880	0.000274
275.3163	0.001540
275.9448	0.002573
276.5734	0.000422
277.2022	0.000211
277.8310	0.000717
278.4600	0.001540
279.0891	-0.000042
279.7184	0.001118
280.3477	0.002446
280.9772	0.000042
281.6069	0.000274
282.2366	0.001645
282.8665	0.000823
283.4965	0.000380
284.1266	0.001835
284.7569	0.001160
285.3873	0.001877
286.0178	0.002320
286.6484	0.001097
287.2792	0.002172
287.9101	0.000422
288.5411	0.000169
289.1723	0.001645
289.8035	0.001793
290.4349	0.000464
291.0665	0.000464
291.6981	0.001308
292.3299	0.000084
292.9618	0.000801
293.5938	0.002678
294.2260	0.000422
294.8582	0.001413
295.4906	0.001308
296.1232	0.001265
296.7558	0.001835
297.3886	-0.000148
298.0215	-0.000021
298.6545	-0.000084
299.2877	0.001012
299.9210	0.000569
300.5544	0.001772
301.1879	-0.000211
301.8215	0.000949
302.4553	0.000865
303.0892	0.000359
303.7233	0.001308
304.3574	0.000633
304.9917	0.000295
305.6261	0.000633
306.2606	0.001772
306.8953	0.001434
307.5301	0.001181
308.1650	0.001308
308.8000	0.000232
309.4351	0.000422
310.0704	0.002109
310.7058	0.000464
311.3413	0.001308
311.9770	0.001751
312.6127	0.002214
313.2486	0.000548
313.8846	0.002193
314.5208	0.002046
315.1570	0.000422
315.7934	0.001244
316.4299	0.001624
317.0666	0.002151
317.7033	0.000886
318.3402	-0.000548
318.9772	0.001033
319.6143	0.002151
320.2516	0.001202
320.8890	0.001434
321.5265	0.001708
322.1641	0.001118
322.8018	0.002573
323.4397	0.002974
324.0777	0.002742
324.7158	0.001497
325.3540	0.001877
325.9924	0.001308
326.6308	0.002847
327.2694	0.001919
327.9082	0.004788
328.5470	0.001835
329.1860	0.003923
329.8251	0.002130
330.4643	0.003290
331.1036	0.000970
331.7431	0.003965
332.3826	0.000633
333.0223	0.002404
333.6622	0.002067
334.3021	0.002721
334.9422	0.003396
335.5823	0.003438
336.2227	0.001898
336.8631	0.004028
337.5036	0.003332
338.1443	0.004070
338.7851	0.003374
339.4260	0.003501
340.0670	0.003754
340.7082	0.002278
341.3495	0.002657
341.9909	0.003227
342.6324	0.001856
343.2740	0.004872
343.9158	0.004155
344.5577	0.003754
345.1997	0.002425
345.8418	0.004070
346.4840	0.003206
347.1264	0.004092
347.7689	0.004176
348.4115	0.005062
349.0542	0.005020
349.6971	0.004134
350.3400	0.004302
350.9831	0.004661
351.6263	0.002721
352.2696	0.003944
352.9131	0.003902
353.5566	0.003838
354.2003	0.004977
354.8441	0.005336
355.4881	0.005715
356.1321	0.004619
356.7763	0.003986
357.4206	0.006327
358.0650	0.004302
358.7095	0.005800
359.3541	0.005758
359.9989	0.006390
360.6438	0.004239
361.2888	0.005779
361.9339	0.004703
362.5791	0.007382
363.2245	0.006981
363.8699	0.007782
364.5155	0.005694
365.1612	0.006179
365.8071	0.005800
366.4530	0.006770
367.0991	0.007297
367.7453	0.009069
368.3916	0.007782
369.0380	0.007445
369.6845	0.007719
370.3312	0.007825
370.9780	0.008647
371.6249	0.009069
372.2719	0.008605
372.9190	0.011051
373.5663	0.010039
374.2136	0.012612
374.8611	0.009891
375.5087	0.011895
376.1564	0.012633
376.8043	0.012739
377.4522	0.012612
378.1003	0.014278
378.7485	0.014025
379.3968	0.016493
380.0452	0.015438
380.6938	0.016682
381.3424	0.017210
381.9912	0.016914
382.6401	0.018096
383.2891	0.018222
383.9382	0.018918
384.5875	0.018665
385.2368	0.019213
385.8863	0.019614
386.5359	0.020669
387.1856	0.023684
387.8355	0.023537
388.4854	0.023305
389.1355	0.021217
389.7856	0.022482
390.4359	0.020943
391.0863	0.022989
391.7369	0.023621
392.3875	0.025119
393.0383	0.028936
393.6891	0.027228
394.3401	0.026890
394.9912	0.029295
395.6425	0.026996
396.2938	0.028852
396.9453	0.028978
397.5968	0.029716
398.2485	0.034398
398.9003	0.033238
399.5522	0.033998
400.2043	0.033449
400.8564	0.032711
401.5087	0.032648
402.1610	0.031741
402.8135	0.033006
403.4661	0.032268
404.1189	0.035537
404.7717	0.034272
405.4246	0.034377
406.0777	0.034905
406.7309	0.032142
407.3842	0.032121
408.0376	0.031593
408.6911	0.031741
409.3448	0.032500
409.9985	0.034504
410.6524	0.034715
411.3064	0.034061
411.9605	0.033217
412.6147	0.036022
413.2690	0.036360
413.9234	0.036571
414.5780	0.034609
415.2326	0.035579
415.8874	0.034989
416.5423	0.035411
417.1973	0.035727
417.8524	0.035495
418.5077	0.036022
419.1630	0.037414
419.8185	0.036571
420.4741	0.037435
421.1298	0.041126
421.7856	0.044121
422.4415	0.044290
423.0975	0.042708
423.7536	0.042750
424.4099	0.041189
425.0663	0.040177
425.7228	0.040599
426.3793	0.037478
427.0361	0.037457
427.6929	0.039059
428.3498	0.039249
429.0068	0.038110
429.6640	0.044754
430.3213	0.046019
430.9787	0.046061
431.6362	0.041485
432.2938	0.037857
432.9515	0.039840
433.6093	0.042371
434.2673	0.045724
434.9253	0.042265
435.5835	0.042075
436.2418	0.043657
436.9001	0.045450
437.5586	0.044184
438.2173	0.044922
438.8760	0.045956
439.5348	0.045450
440.1938	0.043826
440.8528	0.045956
441.5120	0.054603
442.1713	0.055172
442.8307	0.051819
443.4902	0.054519
444.1498	0.054455
444.8095	0.052325
445.4694	0.052156
446.1293	0.053823
446.7894	0.052220
447.4496	0.051903
448.1098	0.048508
448.7702	0.050216
449.4307	0.052684
450.0914	0.050511
450.7521	0.050912
451.4129	0.046715
452.0739	0.048339
452.7349	0.047453
453.3961	0.045893
454.0574	0.043910
454.7188	0.045471
455.3803	0.048445
456.0419	0.048719
456.7036	0.047074
457.3654	0.045956
458.0274	0.049373
458.6894	0.052135
459.3516	0.047812
460.0138	0.051608
460.6762	0.050153
461.3387	0.051882
462.0013	0.044922
462.6640	0.043088
463.3268	0.047032
463.9897	0.048824
464.6528	0.053316
465.3159	0.054455
465.9792	0.057830
466.6425	0.051819
467.3060	0.046821
467.9696	0.047622
468.6333	0.044690
469.2970	0.044163
469.9610	0.042328
470.6250	0.041189
471.2891	0.039397
471.9533	0.041211
472.6177	0.041801
473.2821	0.045513
473.9467	0.044944
474.6113	0.044332
475.2761	0.048866
475.9410	0.045682
476.6060	0.048466
477.2711	0.044374
477.9363	0.046884
478.6016	0.049183
479.2670	0.048065
479.9325	0.047010
480.5982	0.052220
481.2639	0.050849
481.9298	0.052979
482.5957	0.051334
483.2618	0.050258
483.9280	0.051271
484.5943	0.057071
485.2606	0.060529
485.9271	0.183528
486.5937	0.128040
487.2605	0.097754
487.9273	0.059749
488.5942	0.054392
489.2612	0.052789
489.9284	0.052958
490.5956	0.051861
491.2630	0.053612
491.9304	0.049815
492.5980	0.049984
493.2657	0.050216
493.9334	0.052979
494.6013	0.050617
495.2693	0.047559
495.9374	0.048887
496.6056	0.056986
497.2739	0.052388
497.9423	0.049056
498.6109	0.049098
499.2795	0.054202
499.9482	0.053274
500.6171	0.049984
501.2860	0.051397
501.9551	0.050617
502.6242	0.053021
503.2935	0.054244
503.9628	0.054540
504.6323	0.050322
505.3019	0.049098
505.9716	0.050279
506.6414	0.053759
507.3113	0.047685
507.9813	0.047221
508.6514	0.051250
509.3216	0.046778
509.9919	0.047770
510.6623	0.046336
511.3329	0.048824
512.0035	0.045618
512.6742	0.045682
513.3451	0.047285
514.0160	0.043699
514.6871	0.045471
515.3582	0.043320
516.0295	0.043151
516.7008	0.041000
517.3723	0.041717
518.0439	0.041168
518.7155	0.039544
519.3873	0.041780
520.0592	0.038638
520.7312	0.036782
521.4033	0.037414
522.0755	0.035158
522.7478	0.035685
523.4202	0.035326
524.0927	0.038448
524.7653	0.037520
525.4380	0.036950
526.1108	0.037520
526.7837	0.036107
527.4568	0.035516
528.1299	0.037077
528.8031	0.041400
529.4765	0.039966
530.1499	0.040578
530.8234	0.039987
531.4971	0.036065
532.1708	0.040156
532.8447	0.039502
533.5186	0.043720
534.1927	0.045492
534.8668	0.045893
535.5411	0.044944
536.2155	0.043003
536.8899	0.039165
537.5645	0.041253
538.2392	0.042349
538.9139	0.045640
539.5888	0.049815
540.2638	0.044480
540.9389	0.045534
541.6140	0.046357
542.2893	0.045112
542.9647	0.045893
543.6402	0.046568
544.3158	0.049689
544.9915	0.050849
545.6673	0.049351
546.3432	0.046462
547.0192	0.048149
547.6953	0.051018
548.3715	0.056501
549.0478	0.050554
549.7242	0.047348
550.4007	0.048866
551.0773	0.044817
551.7540	0.046019
552.4308	0.053211
553.1077	0.053084
553.7847	0.053823
554.4618	0.051165
555.1390	0.049499
555.8163	0.053295
556.4937	0.052642
557.1712	0.049141
557.8488	0.048887
558.5266	0.046378
559.2044	0.046821
559.8823	0.047453
560.5603	0.056164
561.2384	0.059222
561.9166	0.058188
562.5949	0.053780
563.2733	0.055299
563.9519	0.055932
564.6305	0.058463
565.3092	0.060487
565.9880	0.058737
566.6669	0.061057
567.3459	0.072382
568.0250	0.081135
568.7043	0.091490
569.3836	0.108341
570.0630	0.139808
570.7425	0.146388
571.4221	0.169082
572.1018	0.188485
572.7816	0.158853
573.4615	0.182031
574.1415	0.204366
574.8216	0.219213
575.5018	0.221512
576.1821	0.199937
576.8626	0.218454
577.5431	0.239228
578.2237	0.290604
578.9044	0.239481
579.5851	0.242877
580.2660	0.248761
580.9470	0.242771
581.6281	0.373721
582.3093	0.351787
582.9906	0.270020
583.6720	0.223474
584.3535	0.226384
585.0351	0.252072
585.7167	0.260382
586.3985	0.225857
587.0804	0.236423
587.7624	0.254139
588.4445	0.217821
589.1266	0.193989
589.8089	0.174228
590.4913	0.160941
591.1737	0.143225
591.8563	0.145376
592.5389	0.164505
593.2217	0.217990
593.9046	0.208352
594.5875	0.183296
595.2705	0.210081
595.9537	0.182685
596.6369	0.156069
597.3203	0.159296
598.0037	0.152884
598.6872	0.164505
599.3709	0.187957
600.0546	0.190298
600.7384	0.187852
601.4223	0.189771
602.1064	0.174333
602.7905	0.179036
603.4747	0.196246
604.1590	0.180323
604.8434	0.161341
605.5279	0.168681
606.2125	0.176231
606.8972	0.160308
607.5819	0.162122
608.2668	0.155963
608.9518	0.144237
609.6369	0.133354
610.3220	0.153032
611.0073	0.142782
611.6927	0.141537
612.3781	0.134093
613.0637	0.130676
613.7493	0.130107
614.4351	0.129200
615.1209	0.125867
615.8068	0.133797
616.4929	0.114310
617.1790	0.111547
617.8652	0.111779
618.5515	0.103237
619.2379	0.091785
619.9244	0.097121
620.6110	0.095666
621.2977	0.076410
621.9845	0.082822
622.6714	0.084425
623.3584	0.089972
624.0454	0.087103
624.7326	0.091216
625.4199	0.083961
626.1072	0.078098
626.7947	0.071032
627.4822	0.071855
628.1698	0.064958
628.8576	0.058420
629.5454	0.061710
630.2333	0.059897
630.9213	0.056839
631.6094	0.053190
632.2976	0.052199
632.9859	0.047221
633.6743	0.043699
634.3628	0.043784
635.0514	0.039270
635.7400	0.040831
636.4288	0.049119
637.1177	0.043573
637.8066	0.040873
638.4957	0.042898
639.1848	0.039165
639.8740	0.038343
640.5633	0.037991
641.2528	0.036586
641.9423	0.030798
642.6319	0.031555
643.3216	0.032079
644.0113	0.029066
644.7012	0.028789
645.3912	0.028014
646.0812	0.025407
646.7714	0.025889
647.4616	0.024038
648.1520	0.029705
648.8424	0.033642
649.5329	0.032072
650.2236	0.030294
650.9143	0.029339
651.6051	0.029883
652.2960	0.032442
652.9870	0.030873
653.6780	0.031963
654.3692	0.034002
655.0605	0.060852
655.7518	0.959198
656.4433	1.000000
657.1348	0.848747
657.8264	0.519437
658.5181	0.389511
659.2099	0.304516
659.9018	0.084841
660.5938	0.029490
661.2859	0.024814
661.9781	0.021851
662.6704	0.022317
663.3627	0.022252
664.0552	0.023713
664.7477	0.022861
665.4403	0.025169
666.1330	0.025050
666.8259	0.021688
667.5188	0.020206
668.2117	0.022427
668.9048	0.022145
669.5980	0.022271
670.2913	0.023706
670.9846	0.021955
671.6781	0.028367
672.3716	0.034483
673.0652	0.031425
673.7589	0.026722
674.4527	0.029927
675.1466	0.027586
675.8406	0.026236
676.5347	0.023811
677.2288	0.023495
677.9231	0.027776
678.6174	0.029316
679.3119	0.031404
680.0064	0.036360
680.7010	0.032627
681.3957	0.035115
682.0905	0.032627
682.7854	0.029569
683.4803	0.031467
684.1754	0.035959
684.8705	0.038912
685.5658	0.043910
686.2611	0.042898
686.9565	0.043910
687.6520	0.041464
688.3476	0.038258
689.0433	0.035622
689.7390	0.037414
690.4349	0.034441
691.1308	0.035769
691.8269	0.038764
692.5230	0.037878
693.2192	0.038131
693.9155	0.035073
694.6119	0.032310
695.3083	0.034609
696.0049	0.028514
696.7016	0.033028
697.3983	0.039334
698.0951	0.036993
698.7920	0.038680
699.4890	0.037014
700.1861	0.032205
700.8833	0.031235
701.5806	0.026975
702.2779	0.029695
702.9753	0.029084
703.6729	0.029316
704.3705	0.028240
705.0682	0.024908
705.7660	0.025393
706.4638	0.029653
707.1618	0.037267
707.8599	0.039502
708.5580	0.035854
709.2562	0.032711
709.9545	0.032648
710.6529	0.034082
711.3514	0.031024
712.0500	0.029316
712.7486	0.028852
713.4474	0.030665
714.1462	0.035326
714.8451	0.032774
715.5441	0.031699
716.2432	0.029801
716.9424	0.027945
717.6416	0.026215
718.3410	0.028345
719.0404	0.028345
719.7399	0.030539
720.4395	0.026595
721.1392	0.030750
721.8390	0.028725
722.5388	0.030539
723.2388	0.029653
723.9388	0.027080
724.6389	0.026806
725.3391	0.031024
726.0394	0.033428
726.7398	0.032838
727.4403	0.034293
728.1408	0.033829
728.8414	0.033576
729.5421	0.036929
730.2429	0.036233
730.9438	0.042202
731.6448	0.042624
732.3458	0.041632
733.0470	0.041717
733.7482	0.045176
734.4495	0.051102
735.1509	0.046399
735.8524	0.047496
736.5539	0.048550
737.2556	0.045724
737.9573	0.045260
738.6591	0.041316
739.3610	0.045534
740.0630	0.043404
740.7651	0.038258
741.4672	0.034546
742.1695	0.033934
742.8718	0.034061
743.5742	0.031193
744.2767	0.030075
744.9792	0.027797
745.6819	0.026953
746.3846	0.029084
747.0874	0.029231
747.7903	0.031256
748.4933	0.027502
749.1964	0.031425
749.8995	0.037393
750.6028	0.040198
751.3061	0.039861
752.0095	0.041316
752.7130	0.036022
753.4166	0.038827
754.1202	0.041675
754.8239	0.038638
755.5278	0.042244
756.2317	0.042645
756.9356	0.049963
757.6397	0.060213
758.3438	0.056501
759.0481	0.053991
759.7524	0.060424
760.4568	0.062828
761.1613	0.061183
761.8658	0.051355
762.5705	0.047369
763.2752	0.050722
763.9800	0.049583
764.6849	0.060255
765.3898	0.056944
766.0949	0.047559
766.8000	0.039376
767.5052	0.037794
768.2105	0.042033
768.9159	0.047221
769.6214	0.047749
770.3269	0.043995
771.0325	0.048360
771.7382	0.043467
772.4440	0.041316
773.1499	0.039882
773.8558	0.037625
774.5618	0.036739
775.2679	0.031193
775.9741	0.027565
776.6804	0.027122
777.3868	0.026194
778.0932	0.023811
778.7997	0.029210
779.5063	0.033112
780.2130	0.026869
780.9197	0.031678
781.6265	0.037246
782.3335	0.034651
783.0405	0.031846
783.7475	0.034419
784.4547	0.032226
785.1619	0.028050
785.8692	0.029316
786.5766	0.028198
787.2841	0.026869
787.9917	0.031172
788.6993	0.028936
789.4070	0.030581
790.1148	0.025815
790.8227	0.023537
791.5306	0.024275
792.2387	0.020795
792.9468	0.021850
793.6550	0.024591
794.3632	0.031045
795.0716	0.032142
795.7800	0.030686
796.4885	0.022567
797.1971	0.022609
797.9058	0.025688
798.6145	0.021976
799.3233	0.023537
800.0322	0.021111
800.7412	0.018960
801.4503	0.019277
802.1594	0.018707
802.8686	0.018475
803.5779	0.018011
804.2873	0.018180
804.9968	0.019825
805.7063	0.017400
806.4159	0.022820
807.1256	0.023115
807.8354	0.021365
808.5452	0.023242
809.2551	0.021723
809.9651	0.020226
810.6752	0.018623
811.3853	0.017357
812.0956	0.015923
812.8059	0.012844
813.5163	0.017695
814.2267	0.018623
814.9373	0.017969
815.6479	0.015122
816.3586	0.013139
817.0694	0.012696
817.7802	0.013392
818.4912	0.013540
819.2022	0.011494
819.9133	0.013181
820.6244	0.014953
821.3357	0.015649
822.0470	0.013181
822.7584	0.012296
823.4698	0.011094
824.1814	0.011157
824.8930	0.011600
825.6047	0.013498
826.3165	0.012064
827.0283	0.013793
827.7402	0.013835
828.4522	0.013266
829.1643	0.011895
829.8765	0.011811
830.5887	0.010398
831.3010	0.010630
832.0134	0.007656
832.7259	0.008858
833.4384	0.009090
834.1510	0.010777
834.8637	0.010630
835.5765	0.010587
836.2893	0.009828
837.0022	0.007002
837.7152	0.007846
838.4283	0.007382
839.1414	0.006433
839.8546	0.009174
840.5679	0.007487
841.2813	0.007529
841.9947	0.005252
842.7082	0.006622
843.4218	0.006264
844.1355	0.006707
844.8492	0.005062
845.5631	0.006454
846.2770	0.005715
846.9909	0.005230
847.7050	0.006179
848.4191	0.003712
849.1333	0.005399
849.8475	0.005188
850.5619	0.005104
851.2763	0.005969
851.9908	0.006032
852.7053	0.009343
853.4200	0.015923
854.1347	0.013055
854.8495	0.014004
855.5643	0.014805
856.2792	0.012106
856.9942	0.012064
857.7093	0.011600
858.4245	0.011157
859.1397	0.008858
859.8550	0.009470
860.5704	0.008415
861.2858	0.007677
862.0013	0.006475
862.7169	0.007466
863.4326	0.007086
864.1483	0.008014
864.8642	0.006137
865.5800	0.006601
866.2960	0.005357
867.0120	0.005315
867.7281	0.006833
868.4443	0.005694
869.1606	0.005990
869.8769	0.006327
870.5933	0.005694
871.3097	0.005083
872.0263	0.006559
872.7429	0.004513
873.4596	0.004598
874.1763	0.005062
874.8932	0.005483
875.6101	0.005252
876.3270	0.005842
877.0441	0.004556
877.7612	0.008078
878.4784	0.007213
879.1957	0.007719
879.9130	0.008246
880.6304	0.008668
881.3479	0.007719
882.0654	0.006981
882.7831	0.007424
883.5007	0.007635
884.2185	0.007129
884.9363	0.006939
885.6542	0.006137
886.3722	0.006854
887.0903	0.006918
887.8084	0.005315
888.5266	0.006411
889.2448	0.006116
889.9632	0.006496
890.6816	0.005990
891.4001	0.005863
892.1186	0.006222
892.8372	0.005863
893.5559	0.006327
894.2747	0.004809
894.9935	0.005441
895.7124	0.005167
896.4314	0.004598
897.1504	0.006053
897.8695	0.004239
898.5887	0.006032
899.3079	0.006538
900.0272	0.004070
900.7466	0.003670
901.4661	0.004324
902.1856	0.005568
902.9052	0.004092
903.6249	0.004281
904.3446	0.004809
905.0644	0.005125
905.7843	0.005694
906.5043	0.005673
907.2243	0.005273
907.9444	0.005146
908.6645	0.002763
909.3847	0.004471
910.1050	0.003691
910.8254	0.002847
911.5458	0.003965
912.2663	0.004935
912.9869	0.003817
913.7075	0.004851
914.4283	0.004324
915.1490	0.002278
915.8699	0.002341
916.5908	0.004387
917.3118	0.004155
918.0328	0.005483
918.7539	0.004492
919.4751	0.004007
920.1964	0.002615
920.9177	0.004092
921.6391	0.001919
922.3606	0.004577
923.0821	0.004366
923.8037	0.003670
924.5254	0.003944
925.2471	0.003058
925.9689	0.002784
926.6908	0.003838
927.4127	0.002257
928.1347	0.003733
928.8568	0.002636
929.5789	0.001729
930.3011	0.003227
931.0234	0.003353
931.7457	0.002784
932.4681	0.004092
933.1906	0.001877
933.9131	0.003248
934.6358	0.002868
935.3584	0.003206
936.0812	0.002594
936.8040	0.003712
937.5269	0.001118
938.2498	0.001751
938.9728	0.001434
939.6959	0.001666
940.4190	0.002257
941.1422	0.002910
941.8655	0.002784
942.5889	0.001687
943.3123	0.001434
944.0357	0.002130
944.7593	0.002193
945.4829	0.001097
946.2066	0.002362
946.9303	0.001308
947.6541	-0.000380
948.3780	0.000000
949.1019	0.002932
949.8259	0.001877
950.5500	0.001392
951.2741	0.002700
951.9983	0.003902
952.7226	0.003016
953.4469	0.002932
954.1713	0.001097
954.8958	0.002151
955.6203	-0.000127
956.3449	0.002025
957.0696	0.000464
957.7943	0.002573
958.5191	0.001666
959.2439	0.003248
959.9688	0.002025
960.6938	0.002531
961.4189	0.001160
962.1440	0.001434
962.8692	0.000148
963.5944	0.000780
964.3197	0.000506
965.0451	0.001434
965.7705	0.002025
966.4960	-0.000548
967.2216	0.000295
967.9472	0.001371
968.6729	0.000738
969.3987	0.003501
970.1245	0.000970
970.8504	0.002025
971.5763	0.001329
972.3023	0.001476
973.0284	0.001751
973.7545	0.001455
974.4807	0.000654
975.2070	0.001287
975.9333	0.001434
976.6597	0.002025
977.3862	0.000886
978.1127	0.001666
978.8393	0.001413
979.5659	0.001877
980.2926	0.001287
981.0194	0.001856
981.7462	0.001856
982.4731	0.001940
983.2001	0.000380
983.9271	0.001055
984.6542	0.000717
985.3814	0.000548
986.1086	0.000232
986.8358	0.000190
987.5632	0.000464
988.2906	0.001666
989.0180	0.000485
989.7456	0.001181
990.4732	0.000907
991.2008	0.002151
991.9285	-0.000401
992.6563	0.000337
993.3841	0.001666
994.1120	0.001097
994.8400	0.001097
995.5680	0.000591
996.2961	0.001055
997.0242	0.000949
997.7524	0.000464
998.4807	0.000717
999.2090	0.001181
999.9374	0.000823
1000.67	0.002552
1001.39	0.001371
1002.12	0.002257
1002.85	0.002489
1003.58	0.002700
1004.31	0.000696
1005.04	0.001603
1005.77	0.001118
1006.5	0.001244
1007.22	0.001519
1007.95	0.001561
1008.68	0.002236
1009.41	0.002067
1010.14	0.000633
1010.87	0.002172
1011.6	0.001961
1012.33	0.001308
1013.06	0.001287
1013.79	0.001497
1014.52	0.001329
1015.25	0.001961
1015.98	0.000274
1016.71	0.000295
1017.44	0.000380
1018.17	-0.000021
1018.9	0.001308
1019.63	0.000717
1020.36	0.001076
1021.09	0.000190
1021.82	0.002489
1022.55	0.001265
1023.03	0.000464