File: Auto_Polymerization/Data/UV_VIS_Spectra/MRG-061-F-3_pure_compounds_spectra_test/DMSO+AIBN_spectrum_average_absorbance.txt
# Wavelength	Absorbance
197.78 -0.062492
198.392 -0.195226
199.004 0.146233
199.617 0.340503
200.229 -0.155200
200.842 0.390120
201.455 0.246381
202.067 2.760422
202.68 0.015794
203.294 0.118734
203.907 -0.757796
204.52 0.869833
205.134 0.106106
205.748 2.682145
206.361 -3.046105
206.975 2.294466
207.589 -2.451786
208.204 0.355021
208.818 -0.171909
209.433 0.734762
210.047 -0.341228
210.662 3.055378
211.277 -0.257593
211.892 2.480007
212.507 0.535841
213.122 0.673163
213.738 -0.017172
214.353 -2.380211
214.969 0.139890
215.585 0.550290
216.201 -0.242650
216.817 0.031695
217.433 -0.209297
218.049 -2.107210
218.666 0.058275
219.282 2.960946
219.899 0.398997
220.516 -2.588832
221.133 -0.017598
221.75 0.318451
222.368 1.157409
222.985 -3.128399
223.603 0.035860
224.22 0.138240
224.838 -0.144608
225.456 2.653213
226.074 -0.435357
226.692 -2.354108
227.311 0.127407
227.929 0.281113
228.548 0.243716
229.167 -2.611723
229.786 0.411479
230.405 -0.428909
231.024 -0.043572
231.643 0.754714
232.262 0.432550
232.882 2.599883
233.501 0.167203
234.121 -2.681241
234.741 0.139518
235.361 0.404873
235.982 0.756113
236.602 0.000000
237.222 2.853698
237.843 1.851258
238.464 0.066384
239.084 -2.130334
239.706 -0.416489
240.327 0.107546
240.948 0.188250
241.569 0.525247
242.191 0.113755
242.812 -0.031382
243.434 0.208276
244.056 -2.596597
244.678 0.470703
245.3 -0.022276
245.923 0.339488
246.545 -0.615794
247.167 3.215373
247.79 -0.655961
248.413 0.061164
249.036 0.529540
249.659 0.487559
250.282 0.796793
250.906 -0.498174
251.529 2.008600
252.153 0.487500
252.776 -0.467164
253.4 0.132914
254.024 -0.227632
254.648 -0.007324
255.273 0.717393
255.897 0.072109
256.521 1.014456
257.146 -0.191068
257.771 -2.856124
258.396 -0.097054
259.021 0.761307
259.646 0.180514
260.271 0.202875
260.897 1.790455
261.522 0.425865
262.148 -0.215580
262.774 0.466502
263.399 0.248740
264.026 0.003502
264.652 0.524733
265.278 2.990339
265.904 -0.166088
266.531 -0.456813
267.158 0.280569
267.784 -0.211699
268.411 0.367426
269.038 -0.415224
269.666 -0.142216
270.293 -2.596597
270.921 -0.137491
271.548 0.609180
272.176 0.319523
272.804 3.021603
273.432 0.177578
274.06 0.341735
274.688 1.550086
275.316 0.790561
275.945 -0.005604
276.573 0.367350
277.202 1.490972
277.831 1.122960
278.46 0.030792
279.089 0.794338
279.718 0.532407
280.348 -0.090177
280.977 0.198214
281.607 -2.311754
282.237 -0.012920
282.866 0.040412
283.497 0.383217
284.127 -1.884067
284.757 0.248289
285.387 -2.825426
286.018 0.221261
286.648 0.110570
287.279 -0.121060
287.91 1.278754
288.541 3.352954
289.172 -2.856124
289.803 -2.820858
290.435 -2.547775
291.067 0.411328
291.698 -0.219028
292.33 0.540542
292.962 -3.040602
293.594 -0.064806
294.226 -2.626340
294.858 0.351361
295.491 -2.152288
296.123 0.276452
296.756 0.074454
297.389 1.179128
298.022 0.901246
298.654 0.304216
299.288 -2.053078
299.921 0.341311
300.554 -0.150224
301.188 0.192265
301.822 0.377072
302.455 0.228373
303.089 -0.382428
303.723 -0.243333
304.357 0.677094
304.992 -0.080487
305.626 0.029648
306.261 0.253885
306.895 -0.123782
307.53 0.785033
308.165 -2.107210
308.8 0.400759
309.435 0.893947
310.07 -0.006088
310.706 3.168203
311.341 0.116607
311.977 0.223101
312.613 -0.054606
313.249 1.158848
313.885 0.006094
314.521 -0.030622
315.157 0.234137
315.793 -0.255273
316.43 0.345335
317.067 0.482533
317.703 0.330222
318.34 1.529403
318.977 0.327676
319.614 0.101068
320.252 0.227865
320.889 -0.461474
321.526 0.287374
322.164 0.114712
322.802 0.082502
323.44 0.190443
324.078 0.330479
324.716 0.361330
325.354 0.308224
325.992 0.120751
326.631 0.262805
327.269 0.261941
327.908 0.054771
328.547 0.577125
329.186 0.065725
329.825 0.172342
330.464 0.257069
331.104 0.330846
331.743 0.187505
332.383 0.420506
333.022 0.276917
333.662 0.435612
334.302 0.417475
334.942 0.207827
335.582 0.305020
336.223 0.320471
336.863 0.226729
337.504 0.108024
338.144 0.307404
338.785 0.308229
339.426 0.260665
340.067 0.330611
340.708 0.326414
341.349 0.438346
341.991 0.313574
342.632 0.471194
343.274 0.309427
343.916 0.316335
344.558 0.463255
345.2 0.278785
345.842 0.306447
346.484 0.398105
347.126 0.323153
347.769 0.439163
348.411 0.203629
349.054 0.410476
349.697 0.289076
350.34 0.306730
350.983 0.298936
351.626 0.418233
352.27 0.388694
352.913 0.287583
353.557 0.412650
354.2 0.289127
354.844 0.312580
355.488 0.296820
356.132 0.350040
356.776 0.314126
357.421 0.260742
358.065 0.316706
358.709 0.285989
359.354 0.251646
359.999 0.148375
360.644 0.262504
361.289 0.271658
361.934 0.252535
362.579 0.283682
363.224 0.222118
363.87 0.230136
364.515 0.287024
365.161 0.197189
365.807 0.270589
366.453 0.259785
367.099 0.208802
367.745 0.179322
368.392 0.249919
369.038 0.265944
369.685 0.257133
370.331 0.138376
370.978 0.248371
371.625 0.219396
372.272 0.151836
372.919 0.148909
373.566 0.161951
374.214 0.116630
374.861 0.138015
375.509 0.127022
376.156 0.154565
376.804 0.144744
377.452 0.137973
378.1 0.103092
378.748 0.145807
379.397 0.110985
380.045 0.115733
380.694 0.068342
381.342 0.119054
381.991 0.092210
382.64 0.088846
383.289 0.088401
383.938 0.058052
384.587 0.086151
385.237 0.084444
385.886 0.067979
386.536 0.072247
387.186 0.005888
387.836 0.046496
388.485 0.041845
389.135 0.072136
389.786 0.057970
390.436 0.067695
391.086 0.041257
391.737 0.049958
392.387 0.041610
393.038 0.030398
393.689 0.032204
394.34 0.037161
394.991 0.005895
395.642 0.038611
396.294 0.030749
396.945 0.056396
397.597 0.031177
398.248 0.015391
398.9 0.036639
399.552 0.022021
400.204 0.006504
400.856 0.027884
401.509 0.020905
402.161 0.000486
402.813 -0.012180
403.466 0.006490
404.119 0.001652
404.772 0.021256
405.425 0.024540
406.078 0.030128
406.731 0.001587
407.384 0.009050
408.038 0.029631
408.691 0.018436
409.345 0.001566
409.998 0.026049
410.652 -0.006130
411.306 -0.000629
411.961 -0.001889
412.615 -0.003331
413.269 -0.006602
413.923 0.012455
414.578 0.005978
415.233 -0.017858
415.887 0.018045
416.542 0.006678
417.197 -0.004047
417.852 0.010835
418.508 0.004159
419.163 -0.010310
419.818 0.011168
420.474 0.005274
421.13 0.007125
421.786 0.019789
422.442 0.019793
423.098 0.004659
423.754 0.006921
424.41 -0.003558
425.066 0.010472
425.723 -0.004120
426.379 0.003253
427.036 0.009699
427.693 0.018701
428.35 0.010498
429.007 0.011327
429.664 -0.007649
430.321 0.006500
430.979 0.022828
431.636 0.006263
432.294 0.000630
432.952 0.017437
433.609 0.023282
434.267 0.022227
434.925 0.018665
435.584 0.004884
436.242 0.009285
436.9 0.011449
437.559 -0.005036
438.217 -0.003941
438.876 -0.009916
439.535 -0.017306
440.194 0.017097
440.853 -0.000338
441.512 0.004290
442.171 0.004374
442.831 -0.008185
443.49 -0.020156
444.15 0.005717
444.81 0.005658
445.469 0.011664
446.129 0.001396
446.789 0.005423
447.45 -0.001617
448.11 -0.003814
448.77 -0.001142
449.431 -0.008243
450.091 0.009954
450.752 0.009896
451.413 0.019753
452.074 0.007990
452.735 -0.013352
453.396 0.009001
454.057 0.011128
454.719 -0.006299
455.38 0.002827
456.042 -0.004417
456.704 -0.022550
457.365 0.009496
458.027 0.002605
458.689 -0.009050
459.352 -0.006323
460.014 -0.008639
460.676 -0.014519
461.339 -0.013450
462.001 0.025025
462.664 0.010887
463.327 0.003075
463.99 0.012499
464.653 0.002528
465.316 0.005881
465.979 0.006083
466.642 0.004604
467.306 0.002422
467.97 0.010231
468.633 0.024801
469.297 -0.006343
469.961 -0.025148
470.625 0.002992
471.289 0.024420
471.953 -0.007807
472.618 0.007128
473.282 0.023481
473.947 0.020670
474.611 0.011962
475.276 0.000883
475.941 0.012859
476.606 -0.001987
477.271 0.008751
477.936 0.018599
478.602 0.006461
479.267 0.003874
479.933 0.002569
480.598 0.013760
481.264 0.008014
481.93 0.001897
482.596 -0.004083
483.262 0.003676
483.928 0.007684
484.594 -0.004905
485.261 0.012271
485.927 0.007296
486.594 0.013709
487.26 0.011134
487.927 0.009068
488.594 -0.002316
489.261 0.004677
489.928 -0.001611
490.596 -0.003268
491.263 -0.011612
491.93 0.015543
492.598 0.010459
493.266 0.014894
493.933 -0.007972
494.601 0.016099
495.269 0.006961
495.937 0.001840
496.606 0.004179
497.274 0.014725
497.942 -0.001121
498.611 -0.000131
499.279 0.006122
499.948 0.005233
500.617 0.001547
501.286 0.019840
501.955 0.008122
502.624 0.010017
503.293 -0.002055
503.963 -0.005853
504.632 0.001667
505.302 0.021167
505.972 -0.008578
506.641 -0.004444
507.311 -0.006151
507.981 0.015519
508.651 -0.014825
509.322 -0.006446
509.992 0.000949
510.662 0.009424
511.333 0.005557
512.004 0.021711
512.674 -0.000039
513.345 0.007797
514.016 -0.000686
514.687 -0.009193
515.358 -0.003487
516.029 0.002340
516.701 0.020732
517.372 0.025184
518.044 0.015586
518.716 -0.000065
519.387 0.014146
520.059 0.010549
520.731 0.010610
521.403 0.001931
522.076 -0.002407
522.748 0.000519
523.42 -0.005342
524.093 -0.001884
524.765 -0.000592
525.438 0.014824
526.111 0.003947
526.784 0.010196
527.457 0.015635
528.13 0.003639
528.803 0.010534
529.476 0.000528
530.15 -0.015478
530.823 0.010446
531.497 0.010245
532.171 -0.013745
532.845 -0.003964
533.519 -0.000139
534.193 -0.009046
534.867 0.003351
535.541 0.005522
536.216 -0.006353
536.89 -0.000522
537.564 0.024466
538.239 0.012998
538.914 -0.001304
539.589 -0.003606
540.264 0.012917
540.939 -0.009511
541.614 -0.009559
542.289 0.026465
542.965 0.014035
543.64 0.007013
544.316 0.000230
544.991 0.000525
545.667 0.012465
546.343 0.026531
547.019 0.001472
547.695 -0.001491
548.371 0.002908
549.048 0.005507
549.724 0.010968
550.401 -0.015610
551.077 0.021367
551.754 0.012053
552.431 -0.001868
553.108 0.000425
553.785 0.007344
554.462 0.001173
555.139 -0.000317
555.816 -0.009943
556.494 0.018653
557.171 -0.001331
557.849 0.002659
558.527 0.000659
559.204 -0.006777
559.882 -0.004404
560.56 -0.004655
561.238 0.005614
561.917 -0.003120
562.595 0.021450
563.273 0.006115
563.952 0.000762
564.63 0.015261
565.309 0.009081
565.988 0.012904
566.667 0.006452
567.346 0.007236
568.025 -0.000114
568.704 0.000038
569.384 -0.002487
570.063 -0.002640
570.742 -0.005506
571.422 0.000826
572.102 0.000179
572.782 0.014181
573.462 0.001709
574.141 0.008119
574.822 -0.001009
575.502 0.011474
576.182 0.012396
576.863 0.006557
577.543 0.009895
578.224 0.011180
578.904 0.007963
579.585 0.001298
580.266 -0.000821
580.947 0.000234
581.628 0.003865
582.309 0.001745
582.991 0.002535
583.672 0.004076
584.354 -0.007421
585.035 0.009131
585.717 0.004533
586.399 0.002566
587.08 0.001422
587.762 -0.005683
588.444 0.011854
589.127 0.002966
589.809 0.008614
590.491 0.003363
591.174 0.005436
591.856 -0.003198
592.539 0.002261
593.222 0.009193
593.905 0.006768
594.587 -0.003886
595.27 0.011358
595.954 0.009836
596.637 0.006469
597.32 0.011799
598.004 0.008745
598.687 0.012463
599.371 0.017133
600.055 0.013010
600.738 0.000034
601.422 -0.000525
602.106 0.010537
602.79 0.008221
603.475 0.002484
604.159 0.016824
604.843 0.003614
605.528 0.004583
606.212 -0.003529
606.897 -0.002896
607.582 0.007922
608.267 -0.003843
608.952 0.009266
609.637 0.000510
610.322 0.008972
611.007 -0.001053
611.693 0.001241
612.378 0.010068
613.064 0.011496
613.749 0.004878
614.435 0.010709
615.121 0.005282
615.807 0.009091
616.493 0.008251
617.179 -0.000055
617.865 0.009433
618.552 -0.002516
619.238 0.011655
619.924 0.007738
620.611 0.001097
621.298 0.003202
621.985 0.003609
622.671 0.016691
623.358 0.005962
624.045 0.006872
624.733 -0.005815
625.42 0.002567
626.107 -0.007406
626.795 0.005042
627.482 0.008188
628.17 0.007409
628.858 -0.003701
629.545 0.002471
630.233 0.011048
630.921 0.013453
631.609 0.002995
632.298 0.008114
632.986 0.007513
633.674 0.010650
634.363 0.003046
635.051 0.019563
635.74 0.011304
636.429 -0.002523
637.118 0.012517
637.807 0.036095
638.496 0.018439
639.185 0.004094
639.874 0.015136
640.563 -0.023555
641.253 0.008379
641.942 0.003858
642.632 -0.020361
643.322 -0.003073
644.011 0.002701
644.701 -0.004103
645.391 -0.008007
646.081 -0.002620
646.771 -0.012928
647.462 0.021563
648.152 -0.002129
648.842 -0.002002
649.533 0.024147
650.224 0.024340
650.914 0.008694
651.605 0.010787
652.296 -0.016965
652.987 0.006443
653.678 0.007968
654.369 0.022824
655.061 0.033254
655.752 0.024565
656.443 0.001458
657.135 0.022888
657.826 0.021382
658.518 0.020689
659.21 0.024010
659.902 0.010344
660.594 0.030027
661.286 0.018890
661.978 0.002734
662.67 0.037329
663.363 0.004654
664.055 -0.018166
664.748 0.035248
665.44 0.033880
666.133 -0.004994
666.826 0.003146
667.519 0.025289
668.212 -0.009069
668.905 0.012822
669.598 -0.011411
670.291 0.026408
670.985 0.025851
671.678 0.013714
672.372 -0.007871
673.065 0.005965
673.759 0.015514
674.453 -0.013460
675.147 0.004248
675.841 0.032666
676.535 -0.010780
677.229 -0.004800
677.923 0.026800
678.617 0.015266
679.312 0.022863
680.006 0.008123
680.701 0.031520
681.396 0.011070
682.091 0.008252
682.785 -0.002182
683.48 0.003437
684.175 -0.006917
684.87 0.027899
685.566 0.018784
686.261 0.031692
686.957 -0.009664
687.652 0.014807
688.348 0.018512
689.043 0.020803
689.739 -0.015590
690.435 0.014053
691.131 0.018535
691.827 0.002128
692.523 0.016478
693.219 0.006027
693.915 0.006815
694.612 0.016582
695.308 0.034549
696.005 0.031663
696.702 0.023336
697.398 0.028139
698.095 0.045493
698.792 -0.013805
699.489 -0.009181
700.186 0.006508
700.883 0.015013
701.581 0.025246
702.278 0.005514
702.975 0.031410
703.673 0.038554
704.37 -0.006243
705.068 -0.019049
705.766 -0.014494
706.464 0.030266
707.162 -0.023434
707.86 0.021133
708.558 0.010006
709.256 0.005569
709.955 0.012641
710.653 -0.002432
711.351 -0.023483
712.05 -0.000045
712.749 0.011143
713.447 -0.003604
714.146 -0.005975
714.845 0.002357
715.544 0.018346
716.243 -0.015164
716.942 0.022837
717.642 0.004231
718.341 0.013928
719.04 0.023632
719.74 -0.001495
720.439 0.019015
721.139 -0.001319
721.839 0.029701
722.539 0.002966
723.239 0.011290
723.939 0.000262
724.639 0.041156
725.339 0.019803
726.039 -0.005572
726.74 0.017511
727.44 0.028341
728.141 0.019274
728.841 0.005803
729.542 0.005221
730.243 0.002122
730.944 0.023377
731.645 0.018542
732.346 0.003660
733.047 0.018861
733.748 0.017613
734.449 0.015455
735.151 0.005794
735.852 0.015078
736.554 0.021600
737.256 0.015160
737.957 -0.001558
738.659 0.007770
739.361 0.012788
740.063 -0.008874
740.765 0.004371
741.467 0.017931
742.169 -0.020555
742.872 -0.010791
743.574 0.002802
744.277 -0.007304
744.979 0.037178
745.682 0.000000
746.385 0.016302
747.087 -0.004474
747.79 0.016580
748.493 0.003223
749.196 0.001460
749.899 -0.008043
750.603 0.004997
751.306 0.014332
752.01 0.002050
752.713 0.031093
753.417 -0.005907
754.12 0.012805
754.824 0.003275
755.528 0.004086
756.232 0.023507
756.936 0.007541
757.64 0.005868
758.344 0.013405
759.048 0.007758
759.752 0.015468
760.457 0.005710
761.161 0.014519
761.866 0.036809
762.571 0.001907
763.275 0.010566
763.98 0.023753
764.685 0.008220
765.39 0.015651
766.095 0.010644
766.8 0.001054
767.505 0.005204
768.211 0.010601
768.916 0.029291
769.621 0.001890
770.327 -0.005979
771.033 -0.002606
771.738 0.030650
772.444 0.020601
773.15 0.005071
773.856 0.012191
774.562 -0.011278
775.268 -0.017594
775.974 0.009538
776.68 0.012117
777.387 0.010540
778.093 0.031324
778.8 0.006386
779.506 -0.005755
780.213 0.014060
780.92 0.014140
781.626 -0.024545
782.333 0.003218
783.04 0.016482
783.747 0.011656
784.455 0.002511
785.162 0.029602
785.869 0.003895
786.577 0.010481
787.284 0.022916
787.992 -0.002238
788.699 0.012709
789.407 -0.011368
790.115 0.022848
790.823 0.028618
791.531 -0.000811
792.239 0.007700
792.947 -0.029350
793.655 0.018309
794.363 0.030352
795.072 0.022821
795.78 -0.007227
796.489 0.045042
797.197 0.002845
797.906 -0.010448
798.615 0.001442
799.323 0.014489
800.032 0.025215
800.741 0.017756
801.45 0.052780
802.159 0.006184
802.869 -0.031261
803.578 0.034505
804.287 0.007890
804.997 -0.014261
805.706 0.014913
806.416 0.010802
807.126 0.009101
807.835 0.019187
808.545 -0.004361
809.255 -0.009063
809.965 -0.003769
810.675 -0.004838
811.385 0.024364
812.096 -0.009853
812.806 0.048601
813.516 -0.036111
814.227 0.038321
814.937 -0.013990
815.648 -0.057356
816.359 0.016729
817.069 0.051780
817.78 -0.021246
818.491 -0.001401
819.202 0.013159
819.913 -0.023522
820.624 0.073373
821.336 0.062742
822.047 0.047196
822.758 0.018413
823.47 0.045750
824.181 0.075609
824.893 -0.014562
825.605 0.018814
826.317 0.037290
827.028 0.029356
827.74 0.045681
828.452 0.030650
829.164 -0.021649
829.876 -0.033881
830.589 0.021429
831.301 0.023333
832.013 0.034340
832.726 0.025220
833.438 0.012595
834.151 0.028434
834.864 0.042226
835.577 0.009059
836.289 0.072671
837.002 0.085270
837.715 -0.091358
838.428 -0.002779
839.141 0.036177
839.855 -0.005099
840.568 0.030558
841.281 -0.017217
841.995 -0.060276
842.708 -0.057858
843.422 0.016149
844.135 0.026541
844.849 0.124576
845.563 0.032322
846.277 -0.075841
846.991 -0.062853
847.705 -0.010830
848.419 0.028652
849.133 0.048259
849.847 -0.024858
850.562 -0.021397
851.276 -0.056868
851.991 -0.079253
852.705 -0.011619
853.42 -0.049405
854.135 0.019663
854.85 0.038388
855.564 -0.010354
856.279 0.036188
856.994 -0.034552
857.709 0.012250
858.424 -0.007799
859.14 0.021899
859.855 -0.013566
860.57 0.061887
861.286 0.032569
862.001 0.021037
862.717 -0.001114
863.433 0.021487
864.148 -0.040691
864.864 -0.031621
865.58 -0.046016
866.296 0.024784
867.012 0.050328
867.728 -0.055062
868.444 0.055289
869.161 0.007947
869.877 -0.060671
870.593 -0.030288
871.31 0.020580
872.026 -0.142945
872.743 0.052690
873.46 0.139363
874.176 -0.012970
874.893 0.062578
875.61 0.125724
876.327 0.124754
877.044 0.015096
877.761 -0.051710
878.478 0.028999
879.196 0.071126
879.913 -0.019382
880.63 0.020358
881.348 0.037342
882.065 0.040805
882.783 0.072913
883.501 -0.043699
884.218 -0.018103
884.936 -0.023595
885.654 0.001623
886.372 0.005758
887.09 0.018492
887.808 0.003153
888.527 -0.079648
889.245 -0.010801
889.963 -0.041617
890.682 -0.044760
891.4 -0.008996
892.119 0.049661
892.837 0.082163
893.556 0.051516
894.275 0.042264
894.994 0.075610
895.712 0.107506
896.431 0.031316
897.15 -0.076020
897.87 0.017737
898.589 0.017750
899.308 -0.028076
900.027 -0.152513
900.747 0.038915
901.466 -0.010131
902.186 0.028854
902.905 0.049797
903.625 0.051601
904.345 0.047354
905.064 -0.004519
905.784 0.111718
906.504 0.046100
907.224 0.036057
907.944 -0.068568
908.664 -0.083883
909.385 0.066213
910.105 0.029938
910.825 0.079518
911.546 0.016715
912.266 0.072493
912.987 0.039615
913.707 -0.128674
914.428 -0.039006
915.149 0.082225
915.87 0.005335
916.591 0.029191
917.312 -0.029734
918.033 0.005585
918.754 0.034162
919.475 0.007045
920.196 -0.020987
920.918 0.020033
921.639 0.254405
922.361 0.050238
923.082 -0.118462
923.804 0.078888
924.525 0.045002
925.247 0.010044
925.969 0.004898
926.691 0.075011
927.413 -0.028078
928.135 0.090442
928.857 0.055810
929.579 0.172360
930.301 -0.087764
931.023 -0.065271
931.746 -0.018052
932.468 0.034674
933.191 0.213912
933.913 -0.054766
934.636 -0.110301
935.358 0.084658
936.081 0.091441
936.804 0.021033
937.527 0.163359
938.25 0.219734
938.973 0.281074
939.696 -0.093987
940.419 -0.024255
941.142 -0.312012
941.865 0.255205
942.589 0.258976
943.312 0.380828
944.036 0.084141
944.759 0.288864
945.483 0.335252
946.207 -0.137841
946.93 -0.595049
947.654 0.370935
948.378 1.096367
949.102 0.013527
949.826 0.317368
950.55 0.265649
951.274 -0.183232
951.998 -0.123454
952.723 -0.174558
953.447 -0.154136
954.171 -1.252812
954.896 -0.104102
955.62 0.242350
956.345 0.094338
957.07 -0.195380
957.794 -0.000347
958.519 0.099273
959.244 -0.065036
959.969 -0.184222
960.694 -0.227360
961.419 0.236572
962.144 -0.174552
962.869 0.392995
963.594 0.367800
964.32 0.549221
965.045 -0.163955
965.77 0.019580
966.496 -0.382794
967.222 -0.027152
967.947 -0.001198
968.673 -0.035334
969.399 -0.468025
970.125 2.575188
970.85 -0.467708
971.576 -0.547648
972.302 0.260141
973.028 0.060388
973.755 0.108094
974.481 0.297396
975.207 0.230846
975.933 2.853698
976.66 0.108274
977.386 -0.416293
978.113 -0.374055
978.839 0.595103
979.566 -0.333248
980.293 0.268237
981.019 0.023652
981.746 -0.905410
982.473 0.138338
983.2 0.341979
983.927 0.128493
984.654 -0.087150
985.381 0.316948
986.109 -2.761928
986.836 0.170963
987.563 1.067235
988.291 -0.467207
989.018 3.115278
989.746 -0.792076
990.473 1.759416
991.201 -0.163410
991.928 0.000000
992.656 0.399740
993.384 0.511058
994.112 0.106342
994.84 -2.404834
995.568 0.172988
996.296 0.675081
997.024 -0.874026
997.752 -0.186568
998.481 0.009036
999.209 -2.660865
999.937 0.235278
1000.67 -0.273895
1001.39 -0.032352
1002.12 -0.180669
1002.85 0.272802
1003.58 -3.100371
1004.31 -0.106095
1005.04 0.424360
1005.77 1.084934
1006.5 -0.141811
1007.22 -0.181208
1007.95 0.358668
1008.68 0.095368
1009.41 -3.150756
1010.14 -0.266868
1010.87 -0.024527
1011.6 -0.837070
1012.33 -0.202505
1013.06 -3.043362
1013.79 0.108661
1014.52 0.364699
1015.25 -0.113713
1015.98 2.450249
1016.71 -0.625910
1017.44 2.562293
1018.17 0.675422
1018.9 0.309795
1019.63 0.153584
1020.36 0.579553
1021.09 3.287130
1021.82 -2.481443
1022.55 0.749715
1023.03 0.006055