File: Auto_Polymerization/Data/UV_VIS_Spectra/MRG-061-F-3_pure_compounds_spectra_test/DMSO+CTA_spectrum_average_absorbance.txt
# Wavelength	Absorbance
197.78 1.215764
198.392 -0.048637
199.004 -0.030835
199.617 2.768638
200.229 -0.453613
200.842 0.023481
201.455 3.220892
202.067 0.934348
202.68 0.467534
203.294 2.745075
203.907 -0.177679
204.52 3.062958
205.134 0.280191
205.748 2.682145
206.361 -2.935507
206.975 2.294466
207.589 -2.315970
208.204 3.152288
208.818 2.495544
209.433 1.316884
210.047 0.239942
210.662 3.055378
211.277 2.907949
211.892 0.571522
212.507 3.209783
213.122 2.866287
213.738 0.386636
214.353 0.000000
214.969 0.381978
215.585 2.846955
216.201 0.396247
216.817 2.833784
217.433 -0.285610
218.049 -1.908485
218.666 0.150444
219.282 -0.045948
219.899 0.285370
220.516 -1.944483
221.133 0.065679
221.75 3.183555
222.368 0.823379
222.985 -2.252853
223.603 1.252246
224.22 0.649950
224.838 2.890421
225.456 0.937209
226.074 -0.130971
226.692 0.000000
227.311 3.111934
227.929 0.623443
228.548 0.142085
229.167 0.000000
229.786 -0.236067
230.405 -0.594921
231.024 0.011899
231.643 1.320562
232.262 1.271523
232.882 2.599883
233.501 0.138575
234.121 0.000000
234.741 0.765166
235.361 3.122544
235.982 -0.539110
236.602 0.000000
237.222 2.853698
237.843 1.851258
238.464 0.284459
239.084 0.000000
239.706 -0.092944
240.327 2.190332
240.948 0.811362
241.569 -0.485477
242.191 0.674071
242.812 2.587711
243.434 0.346258
244.056 0.000000
244.678 0.660822
245.3 -0.349635
245.923 0.459098
246.545 -0.524446
247.167 0.179144
247.79 -0.798355
248.413 0.141957
249.036 3.030600
249.659 0.957039
250.282 1.465214
250.906 -0.377928
251.529 2.008600
252.153 1.036736
252.776 -0.097604
253.4 0.003037
254.024 0.159248
254.648 0.611015
255.273 0.195058
255.897 1.085712
256.521 0.526339
257.146 -0.047387
257.771 0.000000
258.396 0.577635
259.021 1.247973
259.646 0.665628
260.271 2.621176
260.897 0.934790
261.522 0.441134
262.148 0.374997
262.774 2.907411
263.399 0.785222
264.026 -0.267502
264.652 3.097604
265.278 0.718497
265.904 -0.076906
266.531 -0.320431
267.158 0.370248
267.784 0.203875
268.411 0.984176
269.038 -0.434857
269.666 0.033706
270.293 -2.465383
270.921 2.833784
271.548 -0.107375
272.176 0.241380
272.804 3.021603
273.432 0.347679
274.06 1.001478
274.688 0.398937
275.316 3.055378
275.945 0.296355
276.573 2.840106
277.202 0.052518
277.831 3.118595
278.46 2.935507
279.089 0.555245
279.718 0.171366
280.348 -0.114955
280.977 2.872156
281.607 0.000000
282.237 0.525070
282.866 0.316019
283.497 0.489020
284.127 -1.630573
284.757 0.151234
285.387 -2.541579
286.018 0.427958
286.648 2.940516
287.279 0.561398
287.91 2.621176
288.541 0.682708
289.172 0.000000
289.803 -2.849419
290.435 0.000000
291.067 0.409732
291.698 0.370698
292.33 -0.099733
292.962 -2.315970
293.594 0.904852
294.226 -2.831870
294.858 0.176640
295.491 -2.804139
296.123 3.247728
296.756 1.183466
297.389 0.549397
298.022 3.149219
298.654 0.441140
299.288 0.000000
299.921 3.234517
300.554 2.769377
301.188 0.238200
301.822 0.651248
302.455 0.318730
303.089 0.056905
303.723 0.915679
304.357 2.432969
304.992 -0.191274
305.626 -0.348986
306.261 0.287725
306.895 -0.068265
307.53 0.324511
308.165 0.000000
308.8 -0.150464
309.435 2.450249
310.07 0.223249
310.706 0.635448
311.341 1.470371
311.977 3.142702
312.613 0.507687
313.249 0.407238
313.885 3.086360
314.521 0.242697
315.157 0.941255
315.793 -0.252583
316.43 2.923114
317.067 1.041841
317.703 0.821712
318.34 3.097604
318.977 0.505626
319.614 0.872107
320.252 1.189469
320.889 0.021338
321.526 0.588404
322.164 3.132580
322.802 0.942161
323.44 1.932283
324.078 1.062564
324.716 3.399154
325.354 1.223930
325.992 0.739522
326.631 1.712263
327.269 1.408373
327.908 1.220593
328.547 3.636688
329.186 0.575752
329.825 0.546134
330.464 2.427849
331.104 2.296020
331.743 0.820451
332.383 1.265604
333.022 0.717085
333.662 0.730859
334.302 1.487668
334.942 0.842339
335.582 0.694918
336.223 3.666237
336.863 1.372857
337.504 0.878307
338.144 1.033625
338.785 3.703205
339.426 0.720475
340.067 1.135007
340.708 0.636978
341.349 1.693840
341.991 1.135684
342.632 1.716517
343.274 0.934615
343.916 1.446669
344.558 1.421446
345.2 1.192020
345.842 1.328942
346.484 3.898615
347.126 1.153195
347.769 3.886321
348.411 3.403749
349.054 1.411537
349.697 0.972244
350.34 1.059347
350.983 1.295606
351.626 3.954918
352.27 0.934575
352.913 2.070782
353.557 1.145294
354.2 1.103529
354.844 3.517152
355.488 1.465392
356.132 1.326219
356.776 3.974327
357.421 1.246263
358.065 3.991935
358.709 0.939161
359.354 3.988202
359.999 2.131389
360.644 1.263166
361.289 1.140139
361.934 1.676885
362.579 1.134449
363.224 4.031206
363.87 1.495410
364.515 4.049102
365.161 1.194627
365.807 1.133912
366.453 4.118562
367.099 1.478832
367.745 2.050220
368.392 1.518651
369.038 1.460864
369.685 1.651253
370.331 4.097847
370.978 1.748154
371.625 1.228742
372.272 1.148336
372.919 0.984192
373.566 1.124037
374.214 0.937744
374.861 0.994714
375.509 0.826456
376.156 0.969907
376.804 0.805937
377.452 0.882961
378.1 0.681324
378.748 0.806228
379.397 0.654393
380.045 0.574881
380.694 0.537441
381.342 0.533492
381.991 0.461647
382.64 0.397564
383.289 0.384384
383.938 0.340733
384.587 0.368515
385.237 0.306998
385.886 0.298803
386.536 0.260273
387.186 0.233531
387.836 0.212347
388.485 0.193701
389.135 0.222112
389.786 0.168007
390.436 0.197656
391.086 0.149119
391.737 0.157839
392.387 0.143771
393.038 0.115450
393.689 0.127060
394.34 0.123375
394.991 0.072830
395.642 0.106290
396.294 0.088205
396.945 0.122631
397.597 0.087242
398.248 0.088908
398.9 0.067366
399.552 0.085093
400.204 0.066817
400.856 0.068122
401.509 0.067901
402.161 0.045156
402.813 0.056948
403.466 0.060007
404.119 0.037832
404.772 0.067801
405.425 0.051662
406.078 0.068519
406.731 0.043983
407.384 0.024870
408.038 0.059174
408.691 0.032477
409.345 0.046914
409.998 0.034525
410.652 0.056546
411.306 0.039886
411.961 0.032616
412.615 0.038963
413.269 0.041147
413.923 0.055963
414.578 0.034316
415.233 0.024799
415.887 0.045167
416.542 0.027842
417.197 0.018095
417.852 0.024648
418.508 0.039406
419.163 0.027128
419.818 0.036554
420.474 0.051286
421.13 0.048891
421.786 0.033433
422.442 0.043849
423.098 0.032467
423.754 0.035844
424.41 0.048026
425.066 0.043207
425.723 0.042806
426.379 0.038898
427.036 0.069938
427.693 0.053274
428.35 0.041128
429.007 0.042740
429.664 0.058527
430.321 0.045399
430.979 0.052909
431.636 0.034212
432.294 0.047027
432.952 0.059537
433.609 0.079410
434.267 0.058307
434.925 0.056646
435.584 0.041630
436.242 0.055419
436.9 0.048928
437.559 0.050128
438.217 0.050294
438.876 0.033101
439.535 0.042112
440.194 0.070200
440.853 0.064985
441.512 0.079062
442.171 0.067092
442.831 0.061474
443.49 0.049301
444.15 0.069143
444.81 0.082089
445.469 0.091898
446.129 0.087932
446.789 0.074867
447.45 0.074626
448.11 0.072809
448.77 0.083398
449.431 0.091723
450.091 0.098293
450.752 0.087606
451.413 0.090593
452.074 0.104167
452.735 0.086860
453.396 0.093580
454.057 0.086209
454.719 0.088581
455.38 0.106815
456.042 0.106392
456.704 0.085856
457.365 0.124410
458.027 0.131356
458.689 0.134398
459.352 0.110202
460.014 0.137366
460.676 0.126862
461.339 0.146597
462.001 0.154341
462.664 0.170458
463.327 0.173571
463.99 0.174051
464.653 0.173634
465.316 0.166945
465.979 0.205603
466.642 0.199477
467.306 0.188997
467.97 0.208292
468.633 0.204739
469.297 0.195007
469.961 0.185996
470.625 0.206063
471.289 0.221125
471.953 0.210797
472.618 0.226728
473.282 0.252852
473.947 0.248114
474.611 0.254702
475.276 0.256574
475.941 0.247797
476.606 0.268339
477.271 0.267227
477.936 0.297576
478.602 0.271228
479.267 0.291374
479.933 0.289037
480.598 0.303809
481.264 0.327467
481.93 0.324928
482.596 0.313215
483.262 0.328413
483.928 0.342606
484.594 0.341704
485.261 0.365094
485.927 0.409354
486.594 0.332877
487.26 0.359893
487.927 0.341812
488.594 0.373913
489.261 0.394799
489.928 0.404591
490.596 0.376431
491.263 0.392120
491.93 0.407579
492.598 0.421904
493.266 0.425734
493.933 0.410030
494.601 0.434598
495.269 0.452786
495.937 0.424383
496.606 0.441252
497.274 0.459452
497.942 0.449392
498.611 0.463419
499.279 0.492978
499.948 0.468504
500.617 0.474676
501.286 0.513328
501.955 0.461506
502.624 0.498173
503.293 0.492619
503.963 0.497854
504.632 0.492572
505.302 0.520732
505.972 0.518579
506.641 0.536396
507.311 0.500839
507.981 0.521662
508.651 0.519983
509.322 0.503692
509.992 0.520503
510.662 0.512113
511.333 0.557455
512.004 0.526730
512.674 0.513803
513.345 0.511591
514.016 0.521198
514.687 0.521804
515.358 0.553927
516.029 0.528774
516.701 0.548734
517.372 0.555368
518.044 0.538532
518.716 0.521568
519.387 0.555425
520.059 0.525358
520.731 0.515675
521.403 0.489034
522.076 0.495077
522.748 0.505573
523.42 0.471767
524.093 0.486921
524.765 0.513953
525.438 0.512211
526.111 0.465204
526.784 0.478362
527.457 0.467013
528.13 0.479247
528.803 0.467663
529.476 0.485808
530.15 0.448514
530.823 0.457881
531.497 0.428597
532.171 0.429899
532.845 0.429862
533.519 0.415802
534.193 0.416827
534.867 0.411733
535.541 0.433206
536.216 0.393934
536.89 0.381695
537.564 0.405165
538.239 0.377596
538.914 0.362799
539.589 0.360416
540.264 0.360644
540.939 0.327617
541.614 0.319629
542.289 0.328869
542.965 0.318082
543.64 0.316181
544.316 0.314872
544.991 0.309657
545.667 0.300351
546.343 0.310933
547.019 0.283100
547.695 0.289983
548.371 0.265128
549.048 0.256455
549.724 0.252062
550.401 0.198514
551.077 0.241244
551.754 0.248357
552.431 0.226777
553.108 0.217262
553.785 0.215657
554.462 0.198808
555.139 0.199533
555.816 0.194265
556.494 0.203748
557.171 0.186244
557.849 0.159271
558.527 0.143055
559.204 0.155745
559.882 0.147110
560.56 0.148482
561.238 0.143728
561.917 0.137703
562.595 0.147606
563.273 0.135585
563.952 0.116157
564.63 0.123441
565.309 0.120755
565.988 0.102711
566.667 0.119586
567.346 0.110914
568.025 0.086825
568.704 0.099622
569.384 0.104938
570.063 0.087600
570.742 0.089466
571.422 0.088143
572.102 0.089167
572.782 0.077486
573.462 0.097468
574.141 0.086297
574.822 0.073968
575.502 0.077757
576.182 0.077052
576.863 0.077680
577.543 0.076086
578.224 0.062197
578.904 0.052628
579.585 0.066279
580.266 0.048407
580.947 0.054988
581.628 0.068358
582.309 0.045639
582.991 0.034504
583.672 0.041786
584.354 0.055255
585.035 0.060413
585.717 0.046069
586.399 0.040008
587.08 0.048361
587.762 0.035865
588.444 0.037229
589.127 0.027950
589.809 0.041936
590.491 0.029745
591.174 0.037684
591.856 0.036867
592.539 0.050467
593.222 0.043590
593.905 0.030369
594.587 0.033666
595.27 0.036029
595.954 0.031249
596.637 0.038860
597.32 0.043208
598.004 0.035140
598.687 0.058594
599.371 0.033485
600.055 0.038423
600.738 0.028753
601.422 0.023248
602.106 0.030260
602.79 0.038280
603.475 0.037170
604.159 0.029567
604.843 0.026705
605.528 0.027513
606.212 0.014811
606.897 0.014875
607.582 0.031275
608.267 0.015029
608.952 0.024496
609.637 0.020295
610.322 0.031434
611.007 0.018564
611.693 0.025941
612.378 0.028880
613.064 0.032895
613.749 0.031885
614.435 0.029603
615.121 0.021594
615.807 0.024263
616.493 0.018672
617.179 0.023885
617.865 0.019929
618.552 0.002996
619.238 0.022263
619.924 0.030336
620.611 0.010767
621.298 0.009940
621.985 0.028437
622.671 0.029065
623.358 0.019833
624.045 0.026870
624.733 0.014470
625.42 0.009304
626.107 0.011109
626.795 0.022194
627.482 0.021637
628.17 0.007878
628.858 0.016663
629.545 0.024061
630.233 0.027156
630.921 0.020000
631.609 0.014838
632.298 0.009619
632.986 0.023070
633.674 0.020975
634.363 0.016932
635.051 0.044054
635.74 0.012971
636.429 0.018840
637.118 0.022692
637.807 0.038224
638.496 0.019404
639.185 0.008413
639.874 0.003609
640.563 -0.000772
641.253 0.008517
641.942 -0.005664
642.632 0.003235
643.322 0.001221
644.011 0.008230
644.701 -0.006994
645.391 0.017412
646.081 -0.019442
646.771 0.000018
647.462 0.026703
648.152 0.038264
648.842 0.017333
649.533 0.032414
650.224 0.013431
650.914 0.007148
651.605 0.035280
652.296 0.017903
652.987 0.030980
653.678 0.010361
654.369 0.051995
655.061 0.104273
655.752 0.104726
656.443 0.001458
657.135 0.014075
657.826 0.019543
658.518 0.020103
659.21 0.016919
659.902 -0.052692
660.594 0.011295
661.286 0.027732
661.978 0.018150
662.67 0.050082
663.363 0.010552
664.055 0.032054
664.748 0.040124
665.44 0.038659
666.133 0.016335
666.826 0.034658
667.519 0.045913
668.212 0.017099
668.905 0.002300
669.598 0.006155
670.291 0.055111
670.985 0.042628
671.678 0.050812
672.372 0.029540
673.065 0.013107
673.759 0.015941
674.453 0.008043
675.147 0.043479
675.841 0.040596
676.535 0.004638
677.229 0.019768
677.923 0.032559
678.617 0.029932
679.312 0.028955
680.006 0.033608
680.701 0.029555
681.396 0.032416
682.091 0.020121
682.785 -0.007701
683.48 0.007399
684.175 0.032411
684.87 0.032050
685.566 0.044319
686.261 0.021718
686.957 0.003875
687.652 0.019995
688.348 0.012090
689.043 0.036107
689.739 0.026314
690.435 0.022433
691.131 0.027737
691.827 0.022013
692.523 0.036643
693.219 0.038612
693.915 0.012413
694.612 0.019408
695.308 0.029479
696.005 0.046276
696.702 0.036472
697.398 0.032923
698.095 0.036044
698.792 0.001116
699.489 0.021824
700.186 0.012236
700.883 0.035017
701.581 0.032738
702.278 0.036445
702.975 0.018808
703.673 0.036600
704.37 0.015096
705.068 -0.004503
705.766 0.027796
706.464 0.075745
707.162 0.012506
707.86 0.046952
708.558 0.013972
709.256 0.007104
709.955 0.020194
710.653 -0.002381
711.351 -0.023414
712.05 0.012815
712.749 0.011338
713.447 0.012522
714.146 0.020285
714.845 0.016998
715.544 0.025857
716.243 -0.006302
716.942 0.024150
717.642 0.005361
718.341 0.038747
719.04 0.032054
719.74 0.005959
720.439 0.018999
721.139 0.014718
721.839 0.067142
722.539 0.025630
723.239 0.029287
723.939 -0.003316
724.639 0.052562
725.339 0.042668
726.039 0.025991
726.74 0.018609
727.44 0.043537
728.141 0.014332
728.841 0.011247
729.542 0.023329
730.243 0.015210
730.944 0.036424
731.645 0.037964
732.346 0.015175
733.047 0.014502
733.748 0.041187
734.449 0.038355
735.151 0.016084
735.852 0.039199
736.554 0.044980
737.256 0.016708
737.957 -0.002178
738.659 0.021461
739.361 0.022921
740.063 0.015223
740.765 0.020516
741.467 0.032598
742.169 -0.001950
742.872 0.003958
743.574 0.013632
744.277 0.019621
744.979 0.032811
745.682 0.016466
746.385 0.017562
747.087 0.018740
747.79 0.022776
748.493 0.051400
749.196 0.032911
749.899 0.045722
750.603 0.021243
751.306 0.029306
752.01 0.017021
752.713 0.020257
753.417 0.002675
754.12 0.034170
754.824 0.008394
755.528 0.014615
756.232 0.035067
756.936 0.022080
757.64 0.032963
758.344 0.021308
759.048 0.031906
759.752 0.035399
760.457 0.021334
761.161 0.034969
761.866 0.046174
762.571 0.015192
763.275 0.020944
763.98 0.028901
764.685 0.035121
765.39 0.023716
766.095 0.010600
766.8 0.002217
767.505 0.024777
768.211 0.018426
768.916 0.044365
769.621 0.022516
770.327 0.014951
771.033 0.017536
771.738 0.026239
772.444 0.032098
773.15 0.004879
773.856 0.028578
774.562 0.014033
775.268 0.018538
775.974 0.024703
776.68 0.061515
777.387 0.003491
778.093 0.034023
778.8 0.029205
779.506 0.019271
780.213 0.032497
780.92 0.044208
781.626 0.021604
782.333 0.033516
783.04 0.001590
783.747 0.024692
784.455 0.005065
785.162 0.039462
785.869 0.029311
786.577 0.013850
787.284 0.054649
787.992 0.007823
788.699 0.009084
789.407 0.018415
790.115 0.018462
790.823 0.014099
791.531 0.033177
792.239 0.027874
792.947 -0.001137
793.655 0.046427
794.363 0.045785
795.072 0.045574
795.78 0.008336
796.489 0.049003
797.197 0.034585
797.906 0.033400
798.615 0.026100
799.323 0.010095
800.032 0.038666
800.741 0.012736
801.45 0.039722
802.159 0.031401
802.869 -0.002092
803.578 0.039250
804.287 0.038381
804.997 -0.012099
805.706 0.021377
806.416 0.053948
807.126 0.034379
807.835 0.004368
808.545 0.020508
809.255 0.019698
809.965 0.022685
810.675 -0.017450
811.385 0.013009
812.096 -0.002712
812.806 -0.010456
813.516 -0.020598
814.227 0.033979
814.937 0.022457
815.648 -0.009547
816.359 0.038624
817.069 -0.004751
817.78 -0.045021
818.491 0.018808
819.202 0.021933
819.913 0.045283
820.624 0.050909
821.336 0.067642
822.047 0.054101
822.758 0.040569
823.47 0.062305
824.181 0.040908
824.893 0.028326
825.605 0.051914
826.317 0.031499
827.028 0.072485
827.74 0.066987
828.452 0.060208
829.164 -0.033719
829.876 0.013964
830.589 0.040756
831.301 0.076759
832.013 0.033751
832.726 0.046028
833.438 0.019542
834.151 0.093990
834.864 0.061949
835.577 0.021498
836.289 0.122047
837.002 0.010567
837.715 -0.040954
838.428 -0.022134
839.141 0.090644
839.855 0.039797
840.568 0.035306
841.281 0.035859
841.995 -0.039069
842.708 0.023623
843.422 0.056671
844.135 0.059718
844.849 0.035041
845.563 0.085427
846.277 -0.015862
846.991 0.014845
847.705 -0.007197
848.419 0.078590
849.133 0.094094
849.847 0.103055
850.562 -0.048125
851.276 -0.030991
851.991 -0.071911
852.705 0.075597
853.42 0.015239
854.135 0.022242
854.85 0.070349
855.564 0.021584
856.279 0.035518
856.994 0.005716
857.709 0.028075
858.424 -0.024479
859.14 0.010196
859.855 0.033406
860.57 0.104032
861.286 0.058724
862.001 0.047295
862.717 0.017569
863.433 0.148688
864.148 -0.003804
864.864 0.010724
865.58 0.000417
866.296 0.036371
867.012 0.094272
867.728 -0.056407
868.444 0.045917
869.161 0.031221
869.877 0.011845
870.593 0.007842
871.31 0.004874
872.026 -0.075141
872.743 0.082681
873.46 0.134249
874.176 0.033581
874.893 0.052437
875.61 0.064250
876.327 0.105353
877.044 -0.017689
877.761 0.074108
878.478 0.058122
879.196 0.106565
879.913 -0.015072
880.63 0.025426
881.348 0.040058
882.065 0.068208
882.783 0.102821
883.501 -0.012969
884.218 -0.036028
884.936 0.076626
885.654 0.053167
886.372 0.046279
887.09 -0.000410
887.808 0.090295
888.527 0.005558
889.245 0.171324
889.963 0.081907
890.682 0.074257
891.4 0.080713
892.119 0.056371
892.837 0.137684
893.556 0.113832
894.275 0.038302
894.994 0.090145
895.712 0.115469
896.431 0.061421
897.15 0.079863
897.87 -0.048803
898.589 0.079046
899.308 0.043387
900.027 -0.063277
900.747 -0.009250
901.466 0.086728
902.186 0.081525
902.905 0.021323
903.625 0.075992
904.345 0.027112
905.064 0.097844
905.784 0.191651
906.504 0.043295
907.224 0.047167
907.944 -0.045705
908.664 -0.087814
909.385 0.010691
910.105 0.035797
910.825 0.084722
911.546 0.000225
912.266 0.099919
912.987 0.006092
913.707 -0.038874
914.428 -0.020838
915.149 0.011824
915.87 0.039721
916.591 0.072830
917.312 -0.032938
918.033 0.027217
918.754 0.085861
919.475 0.144630
920.196 -0.084377
920.918 0.130637
921.639 0.168059
922.361 0.076544
923.082 0.038234
923.804 0.217883
924.525 0.032708
925.247 -0.004341
925.969 0.042970
926.691 0.343261
927.413 0.270169
928.135 0.278988
928.857 0.127732
929.579 0.130642
930.301 0.092372
931.023 0.089631
931.746 0.154486
932.468 0.213644
933.191 0.115912
933.913 0.172869
934.636 -0.033994
935.358 0.181854
936.081 0.144007
936.804 0.259996
937.527 -0.016824
938.25 0.154572
938.973 0.234915
939.696 -0.030466
940.419 0.627750
941.142 0.183032
941.865 0.285103
942.589 0.545283
943.312 0.563758
944.036 0.083531
944.759 0.297519
945.483 0.132262
946.207 0.183294
946.93 -0.819169
947.654 3.168203
948.378 -0.036473
949.102 0.350488
949.826 0.385497
950.55 0.205636
951.274 -0.022180
951.998 0.166200
952.723 -0.009535
953.447 -0.030855
954.171 -1.047374
954.896 0.134315
955.62 -0.056266
956.345 0.293563
957.07 0.192589
957.794 -0.020330
958.519 0.179846
959.244 0.000932
959.969 -0.219748
960.694 -0.181981
961.419 -0.264293
962.144 0.275081
962.869 -0.038823
963.594 0.370275
964.32 0.243271
965.045 -0.162604
965.77 0.682654
966.496 -0.305715
967.222 -0.306724
967.947 -0.165157
968.673 3.067443
969.399 -0.257289
970.125 -0.269910
970.85 -0.064400
971.576 -0.148621
972.302 0.354436
973.028 0.361728
973.755 0.434106
974.481 -0.147170
975.207 0.353242
975.933 0.455758
976.66 0.319357
977.386 -0.145346
978.113 0.148312
978.839 0.570338
979.566 -0.366899
980.293 1.967207
981.019 -0.245007
981.746 -0.934498
982.473 0.659813
983.2 0.853618
983.927 0.076840
984.654 -0.080311
985.381 0.492773
986.109 -3.044540
986.836 0.222057
987.563 -0.107507
988.291 -0.138303
989.018 0.330660
989.746 -0.936846
990.473 0.368481
991.201 0.074829
991.928 0.000000
992.656 0.419728
993.384 3.021603
994.112 -0.060107
994.84 0.000000
995.568 2.407674
996.296 0.096587
997.024 -0.220295
997.752 0.654695
998.481 0.213727
999.209 -2.064458
999.937 -0.835447
1000.67 0.231255
1001.39 0.800592
1002.12 0.196653
1002.85 2.913284
1003.58 -2.966142
1004.31 0.049085
1005.04 3.129368
1005.77 1.192839
1006.5 2.812913
1007.22 2.653213
1007.95 0.067309
1008.68 1.029207
1009.41 -2.235528
1010.14 0.023036
1010.87 0.834831
1011.6 1.591065
1012.33 0.218103
1013.06 -2.409933
1013.79 0.722620
1014.52 0.620387
1015.25 2.940516
1015.98 -0.091330
1016.71 -0.219601
1017.44 -0.206345
1018.17 0.885371
1018.9 1.441819
1019.63 0.203440
1020.36 0.485283
1021.09 3.287130
1021.82 0.000000
1022.55 2.902003
1023.03 2.812913