File: Auto_Polymerization/Data/UV_VIS_Spectra/MRG-061-F-3_pure_compounds_spectra_test/DMSO+CTA_spectrum_2025-06-19_14-56-30.txt
# Wavelength (nm)	Intensity (a.u.)
197.7802	0.000028
198.3922	-0.000352
199.0044	0.001125
199.6168	-0.000162
200.2292	0.001020
200.8418	0.000577
201.4546	0.000408
202.0674	0.000450
202.6805	0.000429
203.2936	-0.000162
203.9069	-0.000352
204.5203	-0.000098
205.1338	0.000788
205.7475	0.000978
206.3614	0.001273
206.9753	-0.000816
207.5894	-0.000225
208.2036	-0.000457
208.8180	0.001147
209.4325	-0.000077
210.0471	0.000408
210.6618	0.000070
211.2767	-0.000183
211.8918	-0.000077
212.5069	-0.000710
213.1222	-0.000204
213.7376	0.001125
214.3532	0.000091
214.9689	0.000302
215.5847	-0.001238
216.2007	0.000535
216.8168	-0.000056
217.4330	0.001505
218.0494	0.000408
218.6659	0.002202
219.2825	0.000767
219.8992	0.000492
220.5161	-0.000521
221.1332	-0.000710
221.7503	-0.000964
222.3676	0.000556
222.9850	0.000070
223.6026	0.000661
224.2203	0.000598
224.8381	0.000070
225.4561	0.000450
226.0742	-0.000436
226.6924	-0.000035
227.3107	0.000366
227.9292	-0.000098
228.5478	0.000155
229.1666	0.000070
229.7855	0.001062
230.4045	0.000640
231.0236	0.001020
231.6429	0.000366
232.2623	0.000556
232.8818	-0.000436
233.5015	0.001294
234.1213	-0.000943
234.7413	0.000936
235.3613	-0.000225
235.9815	0.001484
236.6018	-0.000478
237.2223	0.000408
237.8429	0.000260
238.4636	0.000281
239.0845	0.000809
239.7055	0.000999
240.3266	0.000155
240.9478	-0.000373
241.5692	0.001083
242.1907	0.000366
242.8124	-0.000436
243.4341	0.000851
244.0560	-0.000098
244.6781	0.001463
245.3002	-0.000077
245.9225	0.000640
246.5449	0.002012
247.1675	0.001780
247.7902	0.000450
248.4130	0.000893
249.0359	-0.000204
249.6590	0.000134
250.2822	-0.000077
250.9056	0.002244
251.5290	-0.000288
252.1526	0.000155
252.7763	0.001421
253.4002	-0.000120
254.0242	0.000450
254.6483	0.000302
255.2725	0.000809
255.8969	0.000007
256.5214	0.001822
257.1460	0.000957
257.7708	0.000535
258.3957	-0.000710
259.0207	-0.000985
259.6459	0.000872
260.2711	-0.000647
260.8965	-0.000309
261.5221	0.000028
262.1477	0.001801
262.7735	0.000260
263.3995	-0.000204
264.0255	-0.000225
264.6517	-0.000141
265.2780	-0.000816
265.9044	0.001400
266.5310	-0.000098
267.1577	-0.000352
267.7845	0.000387
268.4114	0.000535
269.0385	0.000113
269.6657	0.001906
270.2931	0.001421
270.9205	0.000577
271.5481	0.000661
272.1758	0.001674
272.8037	-0.000309
273.4316	0.001125
274.0597	-0.000225
274.6880	0.000260
275.3163	-0.001934
275.9448	0.000703
276.5734	-0.000267
277.2022	0.001737
277.8310	0.000134
278.4600	-0.000816
279.0891	-0.000647
279.7184	0.000851
280.3477	0.000661
280.9772	0.000260
281.6069	-0.000542
282.2366	0.000872
282.8665	0.000366
283.4965	-0.000162
284.1266	0.000155
284.7569	0.001147
285.3873	0.000619
286.0178	0.001189
286.6484	0.000914
287.2792	-0.000394
287.9101	-0.000457
288.5411	0.001379
289.1723	-0.000668
289.8035	0.000049
290.4349	0.000070
291.0665	0.000281
291.6981	0.000535
292.3299	0.002012
292.9618	0.000260
293.5938	-0.000457
294.2260	0.000366
294.8582	0.000387
295.4906	0.001822
296.1232	-0.000394
296.7558	0.000450
297.3886	0.001189
298.0215	-0.001934
298.6545	0.000239
299.2877	-0.000225
299.9210	-0.000309
300.5544	-0.001533
301.1879	0.000492
301.8215	0.000028
302.4553	0.001653
303.0892	0.000070
303.7233	0.000577
304.3574	-0.001196
304.9917	0.001125
305.6261	-0.000352
306.2606	0.000302
306.8953	-0.000225
307.5301	0.001041
308.1650	0.000155
308.8000	0.001632
309.4351	-0.001006
310.0704	0.000767
310.7058	0.000302
311.3413	0.000028
311.9770	-0.000331
312.6127	-0.000584
313.2486	0.000830
313.8846	0.000197
314.5208	0.000936
315.1570	-0.000563
315.7934	0.001463
316.4299	-0.000499
317.0666	-0.000035
317.7033	0.000682
318.3402	-0.000689
318.9772	0.001695
319.6143	-0.000415
320.2516	0.000070
320.8890	0.000324
321.5265	0.000999
322.1641	0.000028
322.8018	-0.000415
323.4397	0.000049
324.0777	0.000450
324.7158	-0.000521
325.3540	0.000725
325.9924	-0.000521
326.6308	0.001273
327.2694	0.000218
327.9082	0.000746
328.5470	-0.000056
329.1860	0.001716
329.8251	0.001189
330.4643	-0.000120
331.1036	0.000872
331.7431	-0.000605
332.3826	-0.000014
333.0223	-0.000309
333.6622	0.000345
334.3021	-0.000774
334.9422	0.000577
335.5823	0.000598
336.2227	-0.000288
336.8631	0.001231
337.5036	0.001484
338.1443	0.000239
338.7851	0.000619
339.4260	0.001526
340.0670	0.001210
340.7082	0.000113
341.3495	-0.000035
341.9909	-0.000077
342.6324	0.000281
343.2740	-0.000542
343.9158	-0.000056
344.5577	0.000725
345.1997	-0.000141
345.8418	0.001822
346.4840	-0.000098
347.1264	0.000682
347.7689	-0.000837
348.4115	-0.000647
349.0542	0.000661
349.6971	0.000450
350.3400	0.001737
350.9831	0.000450
351.6263	-0.000056
352.2696	0.000429
352.9131	0.000197
353.5566	0.001695
354.2003	0.000725
354.8441	-0.000795
355.4881	0.000450
356.1321	0.000492
356.7763	-0.000267
357.4206	0.000914
358.0650	-0.000014
358.7095	0.000492
359.3541	-0.000077
359.9989	0.000767
360.6438	0.000450
361.2888	0.001104
361.9339	-0.000605
362.5791	0.000999
363.2245	0.000408
363.8699	0.000767
364.5155	-0.000373
365.1612	0.000556
365.8071	0.001125
366.4530	-0.000014
367.0991	0.000408
367.7453	0.000345
368.3916	0.000387
369.0380	0.000218
369.6845	0.001358
370.3312	-0.000077
370.9780	-0.001365
371.6249	0.000619
372.2719	0.001189
372.9190	0.000830
373.5663	0.002202
374.2136	0.001104
374.8611	0.001632
375.5087	0.002582
376.1564	0.002096
376.8043	0.001569
377.4522	0.002054
378.1003	0.003404
378.7485	0.003827
379.3968	0.005072
380.0452	0.005494
380.6938	0.006528
381.3424	0.006570
381.9912	0.007625
382.6401	0.009461
383.2891	0.009165
383.9382	0.009123
384.5875	0.009862
385.2368	0.012099
385.8863	0.011634
386.5359	0.014905
387.1856	0.015686
387.8355	0.014779
388.4854	0.015053
389.1355	0.014800
389.7856	0.016826
390.4359	0.015981
391.0863	0.020371
391.7369	0.018556
392.3875	0.021299
393.0383	0.024064
393.6891	0.021278
394.3401	0.021194
394.9912	0.023093
395.6425	0.022924
396.2938	0.022375
396.9453	0.025266
397.5968	0.026638
398.2485	0.027862
398.9003	0.031787
399.5522	0.027567
400.2043	0.027714
400.8564	0.029635
401.5087	0.030078
402.1610	0.028622
402.8135	0.029846
403.4661	0.028537
404.1189	0.031724
404.7717	0.029993
405.4246	0.033792
406.0777	0.031703
406.7309	0.030289
407.3842	0.030310
408.0376	0.029023
408.6911	0.032568
409.3448	0.029466
409.9985	0.032610
410.6524	0.030057
411.3064	0.031470
411.9605	0.030901
412.6147	0.032104
413.2690	0.032188
413.9234	0.032631
414.5780	0.031850
415.2326	0.032779
415.8874	0.033475
416.5423	0.034298
417.1973	0.033686
417.8524	0.033327
418.5077	0.033180
419.1630	0.031977
419.8185	0.035079
420.4741	0.036050
421.1298	0.037928
421.7856	0.040460
422.4415	0.041473
423.0975	0.038434
423.7536	0.037653
424.4099	0.036303
425.0663	0.037801
425.7228	0.035227
426.3793	0.033306
427.0361	0.034024
427.6929	0.036155
428.3498	0.035712
429.0068	0.036345
429.6640	0.039743
430.3213	0.043668
430.9787	0.040966
431.6362	0.037147
432.2938	0.035628
432.9515	0.033243
433.6093	0.040017
434.2673	0.039595
434.9253	0.035227
435.5835	0.036556
436.2418	0.038012
436.9001	0.040038
437.5586	0.037886
438.2173	0.038898
438.8760	0.040840
439.5348	0.039363
440.1938	0.038202
440.8528	0.038202
441.5120	0.046981
442.1713	0.045250
442.8307	0.043963
443.4902	0.045757
444.1498	0.048394
444.8095	0.045124
445.4694	0.044533
446.1293	0.043879
446.7894	0.045039
447.4496	0.044638
448.1098	0.041009
448.7702	0.041156
449.4307	0.041578
450.0914	0.039827
450.7521	0.040270
451.4129	0.039173
452.0739	0.037527
452.7349	0.039236
453.3961	0.037611
454.0574	0.037928
454.7188	0.034868
455.3803	0.038012
456.0419	0.036999
456.7036	0.035079
457.3654	0.036303
458.0274	0.037231
458.6894	0.037020
459.3516	0.038160
460.0138	0.036598
460.6762	0.035923
461.3387	0.035691
462.0013	0.030985
462.6640	0.030690
463.3268	0.032441
463.9897	0.034636
464.6528	0.036683
465.3159	0.036957
465.9792	0.036999
466.6425	0.033011
467.3060	0.032357
467.9696	0.030859
468.6333	0.030225
469.2970	0.027377
469.9610	0.025731
470.6250	0.026111
471.2891	0.025688
471.9533	0.023241
472.6177	0.025203
473.2821	0.026511
473.9467	0.026807
474.6113	0.026343
475.2761	0.027820
475.9410	0.025499
476.6060	0.024570
477.2711	0.024190
477.9363	0.026469
478.6016	0.025752
479.2670	0.024887
479.9325	0.024823
480.5982	0.027419
481.2639	0.024465
481.9298	0.025034
482.5957	0.024549
483.2618	0.023684
483.9280	0.023473
484.5943	0.025667
485.2606	0.023747
485.9271	0.079584
486.5937	0.056266
487.2605	0.041009
487.9273	0.025351
488.5942	0.022164
489.2612	0.021679
489.9284	0.020540
490.5956	0.020835
491.2630	0.022375
491.9304	0.020181
492.5980	0.017712
493.2657	0.018978
493.9334	0.019674
494.6013	0.018640
495.2693	0.018683
495.9374	0.018978
496.6056	0.021004
497.2739	0.018197
497.9423	0.016783
498.6109	0.016045
499.2795	0.018471
499.9482	0.018408
500.6171	0.015686
501.2860	0.016551
501.9551	0.017522
502.6242	0.017332
503.2935	0.017037
503.9628	0.017585
504.6323	0.016720
505.3019	0.016530
505.9716	0.016256
506.6414	0.015623
507.3113	0.014546
507.9813	0.015580
508.6514	0.014568
509.3216	0.014167
509.9919	0.015116
510.6623	0.013787
511.3329	0.012964
512.0035	0.014673
512.6742	0.013365
513.3451	0.013702
514.0160	0.014504
514.6871	0.012436
515.3582	0.011508
516.0295	0.011550
516.7008	0.012605
517.3723	0.011212
518.0439	0.011107
518.7155	0.011339
519.3873	0.011930
520.0592	0.011529
520.7312	0.011297
521.4033	0.012183
522.0755	0.011845
522.7478	0.012162
523.4202	0.012689
524.0927	0.012035
524.7653	0.011276
525.4380	0.011466
526.1108	0.013069
526.7837	0.011909
527.4568	0.011845
528.1299	0.012901
528.8031	0.014146
529.4765	0.012795
530.1499	0.012647
530.8234	0.015306
531.4971	0.013491
532.1708	0.013323
532.8447	0.013871
533.5186	0.016741
534.1927	0.017226
534.8668	0.018049
535.5411	0.016889
536.2155	0.017395
536.8899	0.016509
537.5645	0.015939
538.2392	0.017205
538.9139	0.019906
539.5888	0.020054
540.2638	0.018493
540.9389	0.020476
541.6140	0.021278
542.2893	0.023072
542.9647	0.023705
543.6402	0.022882
544.3158	0.026575
544.9915	0.024570
545.6673	0.024106
546.3432	0.023262
547.0192	0.024401
547.6953	0.027102
548.3715	0.031154
549.0478	0.029381
549.7242	0.029023
550.4007	0.030183
551.0773	0.026912
551.7540	0.026870
552.4308	0.033813
553.1077	0.032019
553.7847	0.032568
554.4618	0.030880
555.1390	0.031428
555.8163	0.031871
556.4937	0.034952
557.1712	0.031154
557.8488	0.035459
558.5266	0.033644
559.2044	0.031956
559.8823	0.032336
560.5603	0.037759
561.2384	0.042127
561.9166	0.042085
562.5949	0.039447
563.2733	0.041241
563.9519	0.043731
564.6305	0.045525
565.3092	0.048352
565.9880	0.048437
566.6669	0.048057
567.3459	0.060465
568.0250	0.063715
568.7043	0.073591
569.3836	0.084775
570.0630	0.114803
570.7425	0.117146
571.4221	0.138522
572.1018	0.152028
572.7816	0.131115
573.4615	0.152534
574.1415	0.170534
574.8216	0.186656
575.5018	0.187711
576.1821	0.167707
576.8626	0.191658
577.5431	0.204256
578.2237	0.252875
578.9044	0.211726
579.5851	0.207062
580.2660	0.219850
580.9470	0.213731
581.6281	0.328252
582.3093	0.312911
582.9906	0.238462
583.6720	0.195794
584.3535	0.197271
585.0351	0.227975
585.7167	0.235846
586.3985	0.202504
587.0804	0.217044
587.7624	0.228776
588.4445	0.203517
589.1266	0.176865
589.8089	0.162283
590.4913	0.148482
591.1737	0.130313
591.8563	0.132234
592.5389	0.153378
593.2217	0.199740
593.9046	0.191425
594.5875	0.169606
595.2705	0.194992
595.9537	0.168635
596.6369	0.141455
597.3203	0.146182
598.0037	0.140991
598.6872	0.155889
599.3709	0.180305
600.0546	0.181655
600.7384	0.174924
601.4223	0.178996
602.1064	0.165343
602.7905	0.165744
603.4747	0.182119
604.1590	0.169184
604.8434	0.151226
605.5279	0.163824
606.2125	0.168129
606.8972	0.148124
607.5819	0.152851
608.2668	0.145085
608.9518	0.137488
609.6369	0.127908
610.3220	0.146647
611.0073	0.131833
611.6927	0.135905
612.3781	0.122717
613.0637	0.124447
613.7493	0.123540
614.4351	0.121450
615.1209	0.122484
615.8068	0.127106
616.4929	0.111216
617.1790	0.103725
617.8652	0.108346
618.5515	0.097056
619.2379	0.090557
619.9244	0.089058
620.6110	0.091380
621.2977	0.072704
621.9845	0.078866
622.6714	0.080238
623.3584	0.088784
624.0454	0.084015
624.7326	0.088024
625.4199	0.078697
626.1072	0.073802
626.7947	0.066669
627.4822	0.068336
628.1698	0.062343
628.8576	0.056751
629.5454	0.059663
630.2333	0.058059
630.9213	0.053628
631.6094	0.053016
632.2976	0.050188
632.9859	0.043288
633.6743	0.042781
634.3628	0.041621
635.0514	0.037907
635.7400	0.039743
636.4288	0.044554
637.1177	0.041958
637.8066	0.038434
638.4957	0.042697
639.1848	0.038244
639.8740	0.036649
640.5633	0.035467
641.2528	0.033761
641.9423	0.032582
642.6319	0.028757
643.3216	0.030032
644.0113	0.028160
644.7012	0.027251
645.3912	0.023985
646.0812	0.026320
646.7714	0.023645
647.4616	0.022905
648.1520	0.027380
648.8424	0.031663
649.5329	0.032675
650.2236	0.027562
650.9143	0.027174
651.6051	0.026815
652.2960	0.030227
652.9870	0.029726
653.6780	0.031731
654.3692	0.031297
655.0605	0.060083
655.7518	0.939786
656.4433	1.000000
657.1348	0.815006
657.8264	0.501615
658.5181	0.379614
659.2099	0.295859
659.9018	0.081767
660.5938	0.027722
661.2859	0.022890
661.9781	0.021891
662.6704	0.021126
663.3627	0.020163
664.0552	0.020202
664.7477	0.021139
665.4403	0.022606
666.1330	0.023245
666.8259	0.019518
667.5188	0.019887
668.2117	0.018846
668.9048	0.021004
669.5980	0.020983
670.2913	0.021595
670.9846	0.020012
671.6781	0.028812
672.3716	0.034446
673.0652	0.031133
673.7589	0.027630
674.4527	0.027123
675.1466	0.025836
675.8406	0.025562
676.5347	0.022861
677.2288	0.021763
677.9231	0.027630
678.6174	0.028558
679.3119	0.030584
680.0064	0.032737
680.7010	0.032167
681.3957	0.033897
682.0905	0.032357
682.7854	0.030036
683.4803	0.031048
684.1754	0.033011
684.8705	0.039194
685.5658	0.042359
686.2611	0.044005
686.9565	0.041515
687.6520	0.040376
688.3476	0.038519
689.0433	0.033433
689.7390	0.034340
690.4349	0.032040
691.1308	0.037126
691.8269	0.036619
692.5230	0.036683
693.2192	0.036113
693.9155	0.035016
694.6119	0.029635
695.3083	0.035818
696.0049	0.026596
696.7016	0.035290
697.3983	0.038350
698.0951	0.035543
698.7920	0.035712
699.4890	0.031513
700.1861	0.029613
700.8833	0.027609
701.5806	0.028242
702.2779	0.029023
702.9753	0.028558
703.6729	0.028495
704.3705	0.027630
705.0682	0.023958
705.7660	0.022038
706.4638	0.027060
707.1618	0.034784
707.8599	0.034172
708.5580	0.035733
709.2562	0.032716
709.9545	0.032737
710.6529	0.034214
711.3514	0.032716
712.0500	0.028200
712.7486	0.028157
713.4474	0.030247
714.1462	0.031323
714.8451	0.032969
715.5441	0.032905
716.2432	0.028242
716.9424	0.027588
717.6416	0.025625
718.3410	0.027503
719.0404	0.028896
719.7399	0.028284
720.4395	0.027567
721.1392	0.028010
721.8390	0.025731
722.5388	0.026448
723.2388	0.027166
723.9388	0.028537
724.6389	0.026533
725.3391	0.029381
726.0394	0.030647
726.7398	0.033306
727.4403	0.029951
728.1408	0.030563
728.8414	0.033391
729.5421	0.033686
730.2429	0.033939
730.9438	0.041600
731.6448	0.040861
732.3458	0.038160
733.0470	0.041431
733.7482	0.043330
734.4495	0.049534
735.1509	0.044237
735.8524	0.043604
736.5539	0.045630
737.2556	0.048458
737.9573	0.040038
738.6591	0.037907
739.3610	0.044469
740.0630	0.039595
740.7651	0.036788
741.4672	0.031618
742.1695	0.034235
742.8718	0.031154
743.5742	0.029234
744.2767	0.029698
744.9792	0.030162
745.6819	0.026322
746.3846	0.028136
747.0874	0.029086
747.7903	0.028390
748.4933	0.025667
749.1964	0.029023
749.8995	0.032631
750.6028	0.040355
751.3061	0.036852
752.0095	0.038181
752.7130	0.035142
753.4166	0.036430
754.1202	0.038793
754.8239	0.039932
755.5278	0.041389
756.2317	0.044448
756.9356	0.049281
757.6397	0.056329
758.3438	0.056245
759.0481	0.048753
759.7524	0.055337
760.4568	0.061815
761.1613	0.058144
761.8658	0.049365
762.5705	0.045693
763.2752	0.047930
763.9800	0.046369
764.6849	0.054556
765.3898	0.055274
766.0949	0.046643
766.8000	0.040355
767.5052	0.034952
768.2105	0.041958
768.9159	0.047171
769.6214	0.043520
770.3269	0.043077
771.0325	0.047065
771.7382	0.043963
772.4440	0.039954
773.1499	0.037717
773.8558	0.035607
774.5618	0.031070
775.2679	0.028010
775.9741	0.025667
776.6804	0.023895
777.3868	0.023937
778.0932	0.022375
778.7997	0.026849
779.5063	0.030669
780.2130	0.026596
780.9197	0.028706
781.6265	0.033560
782.3335	0.032462
783.0405	0.032547
783.7475	0.033813
784.4547	0.030479
785.1619	0.027419
785.8692	0.028136
786.5766	0.028284
787.2841	0.024591
787.9917	0.028347
788.6993	0.029613
789.4070	0.026596
790.1148	0.025667
790.8227	0.024000
791.5306	0.022439
792.2387	0.021679
792.9468	0.020962
793.6550	0.023156
794.3632	0.029128
795.0716	0.032040
795.7800	0.028748
796.4885	0.021468
797.1971	0.019674
797.9058	0.022143
798.6145	0.021679
799.3233	0.021489
800.0322	0.019864
800.7412	0.018725
801.4503	0.018007
802.1594	0.016192
802.8686	0.016256
803.5779	0.017522
804.2873	0.016551
804.9968	0.016783
805.7063	0.017332
806.4159	0.021384
807.1256	0.021088
807.8354	0.022608
808.5452	0.022164
809.2551	0.020392
809.9651	0.018176
810.6752	0.018493
811.3853	0.018366
812.0956	0.016192
812.8059	0.014736
813.5163	0.017311
814.2267	0.018767
814.9373	0.016235
815.6479	0.014167
816.3586	0.012542
817.0694	0.014589
817.7802	0.014251
818.4912	0.013069
819.2022	0.011634
819.9133	0.010052
820.6244	0.015369
821.3357	0.015580
822.0470	0.012521
822.7584	0.012795
823.4698	0.011107
824.1814	0.011613
824.8930	0.010495
825.6047	0.012246
826.3165	0.012500
827.0283	0.012162
827.7402	0.011824
828.4522	0.011888
829.1643	0.012943
829.8765	0.011360
830.5887	0.008807
831.3010	0.008870
832.0134	0.007519
832.7259	0.008427
833.4384	0.007688
834.1510	0.008849
834.8637	0.010558
835.5765	0.010284
836.2893	0.008596
837.0022	0.008954
837.7152	0.006211
838.4283	0.006781
839.1414	0.004692
839.8546	0.006929
840.5679	0.007583
841.2813	0.005662
841.9947	0.005325
842.7082	0.005684
843.4218	0.004797
844.1355	0.006886
844.8492	0.004291
845.5631	0.004249
846.2770	0.003911
846.9909	0.004016
847.7050	0.006084
848.4191	0.004734
849.1333	0.004713
849.8475	0.003383
850.5619	0.005620
851.2763	0.003658
851.9908	0.006401
852.7053	0.007203
853.4200	0.012457
854.1347	0.014610
854.8495	0.012331
855.5643	0.012352
856.2792	0.013090
856.9942	0.011761
857.7093	0.009925
858.4245	0.009714
859.1397	0.009187
859.8550	0.007245
860.5704	0.008005
861.2858	0.006886
862.0013	0.005684
862.7169	0.006000
863.4326	0.005008
864.1483	0.005958
864.8642	0.006274
865.5800	0.005831
866.2960	0.004713
867.0120	0.004776
867.7281	0.005536
868.4443	0.006211
869.1606	0.003932
869.8769	0.003974
870.5933	0.004628
871.3097	0.005979
872.0263	0.004038
872.7429	0.003510
873.4596	0.004713
874.1763	0.004565
874.8932	0.005008
875.6101	0.005937
876.3270	0.004080
877.0441	0.006633
877.7612	0.004692
878.4784	0.006253
879.1957	0.007794
879.9130	0.008216
880.6304	0.009018
881.3479	0.006464
882.0654	0.007604
882.7831	0.006190
883.5007	0.006718
884.2185	0.005620
884.9363	0.004396
885.6542	0.006359
886.3722	0.005641
887.0903	0.007541
887.8084	0.005093
888.5266	0.004903
889.2448	0.004291
889.9632	0.003109
890.6816	0.001547
891.4001	0.003404
892.1186	0.005768
892.8372	0.003531
893.5559	0.004945
894.2747	0.004586
894.9935	0.004924
895.7124	0.004755
896.4314	0.005451
897.1504	0.004439
897.8695	0.005325
898.5887	0.004797
899.3079	0.004839
900.0272	0.003658
900.7466	0.005641
901.4661	0.003827
902.1856	0.004016
902.9052	0.002307
903.6249	0.004417
904.3446	0.004312
905.0644	0.003489
905.7843	0.004502
906.5043	0.004227
907.2243	0.004882
907.9444	0.006464
908.6645	0.004038
909.3847	0.004080
910.1050	0.004249
910.8254	0.003404
911.5458	0.003468
912.2663	0.003468
912.9869	0.003594
913.7075	0.002328
914.4283	0.002349
915.1490	0.003151
915.8699	0.003046
916.5908	0.003489
917.3118	0.004333
918.0328	0.004502
918.7539	0.003742
919.4751	0.003236
920.1964	0.003742
920.9177	0.003025
921.6391	0.003151
922.3606	0.003067
923.0821	0.002518
923.8037	0.002392
924.5254	0.002877
925.2471	0.002539
925.9689	0.003109
926.6908	0.002666
927.4127	0.001505
928.1347	0.001041
928.8568	0.000851
929.5789	0.002940
930.3011	0.001737
931.0234	0.001801
931.7457	0.001674
932.4681	0.002265
933.1906	0.002392
933.9131	0.001948
934.6358	0.000851
935.3584	0.002434
936.0812	0.000345
936.8040	0.002223
937.5269	0.001822
938.2498	0.001590
938.9728	0.001695
939.6959	0.003130
940.4190	0.001104
941.1422	0.000218
941.8655	0.001632
942.5889	0.000661
943.3123	0.000598
944.0357	0.001104
944.7593	0.001843
945.4829	0.000429
946.2066	0.001885
946.9303	0.001885
947.6541	0.000218
948.3780	0.000408
949.1019	0.000914
949.8259	0.000809
950.5500	0.001062
951.2741	0.000914
951.9983	0.001294
952.7226	-0.000288
953.4469	0.001231
954.1713	0.000366
954.8958	0.001737
955.6203	0.001674
956.3449	0.000556
957.0696	0.001083
957.7943	0.000661
958.5191	0.000260
959.2439	0.002666
959.9688	0.001569
960.6938	0.001611
961.4189	0.000577
962.1440	0.000872
962.8692	0.000661
963.5944	0.000577
964.3197	-0.000014
965.0451	0.000619
965.7705	-0.000331
966.4960	0.000492
967.2216	0.001843
967.9472	0.000746
968.6729	-0.001111
969.3987	-0.000056
970.1245	0.000999
970.8504	0.000324
971.5763	-0.001407
972.3023	0.001695
973.0284	0.000091
973.7545	0.001336
974.4807	0.000914
975.2070	0.001062
975.9333	0.000408
976.6597	0.000197
977.3862	0.000957
978.1127	0.000260
978.8393	0.000767
979.5659	0.001210
980.2926	-0.001111
981.0194	0.001970
981.7462	0.000345
982.4731	0.000134
983.2001	0.000091
983.9271	0.001358
984.6542	0.000682
985.3814	-0.000056
986.1086	0.002138
986.8358	0.002096
987.5632	0.000471
988.2906	0.000767
989.0180	0.001780
989.7456	0.001421
990.4732	0.000872
991.2008	0.001104
991.9285	0.000155
992.6563	0.000830
993.3841	-0.000774
994.1120	0.001189
994.8400	-0.000225
995.5680	0.000070
996.2961	0.000366
997.0242	0.000872
997.7524	-0.000331
998.4807	0.000661
999.2090	0.000661
999.9374	0.001442
1000.67	0.001104
1001.39	0.000429
1002.12	0.000725
1002.85	0.000577
1003.58	0.002413
1004.31	0.000619
1005.04	0.000070
1005.77	-0.000478
1006.5	0.000788
1007.22	-0.001132
1007.95	0.002476
1008.68	-0.000795
1009.41	0.000978
1010.14	0.000070
1010.87	0.001125
1011.6	-0.000077
1012.33	0.001379
1013.06	-0.000668
1013.79	-0.000120
1014.52	-0.000035
1015.25	-0.000774
1015.98	-0.000816
1016.71	0.000239
1017.44	0.000387
1018.17	0.000070
1018.9	-0.000141
1019.63	0.000408
1020.36	-0.000795
1021.09	0.000387
1021.82	-0.000373
1022.55	-0.000225
1023.03	-0.000183