File: Auto_Polymerization/Data/UV_VIS_Spectra/MRG-061-F-3_pure_compounds_spectra_test/DMSO+MMA_spectrum_average_absorbance.txt
# Wavelength	Absorbance
197.78 -0.106905
198.392 0.249176
199.004 0.319764
199.617 2.768638
200.229 -0.602060
200.842 2.902003
201.455 0.173617
202.067 0.457226
202.68 0.322219
203.294 0.269404
203.907 1.959041
204.52 0.273377
205.134 0.543543
205.748 0.186601
206.361 -2.942504
206.975 -0.342022
207.589 -2.689309
208.204 3.152288
208.818 -0.407002
209.433 0.899348
210.047 -0.180442
210.662 0.418890
211.277 0.286772
211.892 2.002886
212.507 0.351848
213.122 0.012589
213.738 0.079091
214.353 -2.178977
214.969 0.226280
215.585 1.255891
216.201 -0.114465
216.817 2.833784
217.433 -0.188536
218.049 -2.736397
218.666 -0.037859
219.282 0.708093
219.899 0.361845
220.516 -2.789581
221.133 0.171221
221.75 0.914042
222.368 0.408134
222.985 -3.076276
223.603 0.146736
224.22 2.935507
224.838 -0.113470
225.456 -0.267432
226.074 -0.225478
226.692 -3.012837
227.311 0.190768
227.929 3.252853
228.548 0.686623
229.167 -2.866287
229.786 -0.049043
230.405 1.963788
231.024 0.560007
231.643 0.560139
232.262 0.471912
232.882 -0.266404
233.501 0.343294
234.121 -1.944483
234.741 3.097604
235.361 0.580964
235.982 -0.410373
236.602 -2.089905
237.222 0.095544
237.843 0.188501
238.464 -0.119367
239.084 -1.662758
239.706 -0.406540
240.327 -0.588543
240.948 0.361950
241.569 0.654734
242.191 0.293012
242.812 2.587711
243.434 0.026793
244.056 -2.575188
244.678 0.122908
245.3 2.357935
245.923 0.159837
246.545 2.396199
247.167 0.586984
247.79 -0.874233
248.413 -0.093403
249.036 0.455412
249.659 0.782634
250.282 0.025435
250.906 -0.338219
251.529 -0.364312
252.153 0.387586
252.776 -0.237544
253.4 0.271302
254.024 0.554675
254.648 0.061807
255.273 0.289393
255.897 0.080805
256.521 0.108038
257.146 0.015512
257.771 -2.649335
258.396 0.559039
259.021 0.511577
259.646 0.235539
260.271 2.621176
260.897 0.407755
261.522 3.142702
262.148 0.353407
262.774 2.907411
263.399 0.170596
264.026 2.396199
264.652 0.144812
265.278 2.990339
265.904 0.255370
266.531 2.294466
267.158 0.026860
267.784 -0.374568
268.411 0.131182
269.038 -0.754670
269.666 0.441926
270.293 -2.385606
270.921 0.183477
271.548 0.196421
272.176 0.627302
272.804 0.677210
273.432 0.361105
274.06 2.945961
274.688 1.146128
275.316 0.180897
275.945 0.152091
276.573 2.840106
277.202 -0.044040
277.831 0.585841
278.46 -0.046764
279.089 -0.033129
279.718 0.233752
280.348 0.010243
280.977 -0.063351
281.607 -2.956168
282.237 0.047949
282.866 2.791691
283.497 0.670764
284.127 -2.029384
284.757 0.426925
285.387 -2.158362
286.018 0.624000
286.648 2.940516
287.279 0.233114
287.91 0.030112
288.541 1.022540
289.172 -2.985426
289.803 -2.988559
290.435 -2.798651
291.067 0.376751
291.698 -0.223031
292.33 0.080126
292.962 -2.995196
293.594 0.015664
294.226 -2.583199
294.858 -0.006531
295.491 0.000000
296.123 0.105026
296.756 0.384568
297.389 2.935003
298.022 0.070400
298.654 0.585360
299.288 -2.550228
299.921 0.675809
300.554 2.769377
301.188 0.088708
301.822 0.418778
302.455 1.271530
303.089 -0.400220
303.723 0.469434
304.357 -0.433318
304.992 -0.210140
305.626 -0.712855
306.261 3.051153
306.895 -0.480190
307.53 -0.007359
308.165 -2.730782
308.8 -0.179556
309.435 0.090414
310.07 0.183084
310.706 0.281712
311.341 0.438511
311.977 0.429212
312.613 -0.023392
313.249 0.558248
313.885 0.073523
314.521 -0.095475
315.157 -0.004869
315.793 -0.509053
316.43 0.472480
317.067 0.565269
317.703 0.408376
318.34 -0.081085
318.977 0.065970
319.614 -0.075750
320.252 0.045494
320.889 -0.677319
321.526 0.269072
322.164 -0.213577
322.802 0.001227
323.44 0.034485
324.078 -0.015459
324.716 -0.091085
325.354 0.310996
325.992 -0.185252
326.631 0.086506
327.269 -0.057097
327.908 0.060772
328.547 0.317374
329.186 0.016782
329.825 0.027726
330.464 0.171159
331.104 0.082111
331.743 -0.009518
332.383 0.009528
333.022 0.005322
333.662 0.066307
334.302 0.101932
334.942 -0.034857
335.582 -0.051175
336.223 0.088630
336.863 -0.000092
337.504 0.004365
338.144 0.125995
338.785 -0.041869
339.426 0.042456
340.067 0.061325
340.708 -0.066635
341.349 -0.047680
341.991 0.082745
342.632 0.080415
343.274 0.010522
343.916 -0.002858
344.558 0.038086
345.2 0.013430
345.842 0.065905
346.484 0.103222
347.126 0.063839
347.769 -0.011910
348.411 -0.048242
349.054 0.054979
349.697 -0.019181
350.34 0.030511
350.983 -0.055030
351.626 0.040416
352.27 0.030716
352.913 -0.068815
353.557 0.055993
354.2 -0.001779
354.844 0.027287
355.488 0.014995
356.132 0.067066
356.776 0.017008
357.421 -0.022945
358.065 -0.010793
358.709 0.013836
359.354 -0.016334
359.999 -0.038215
360.644 -0.034536
361.289 0.040971
361.934 0.007849
362.579 0.064106
363.224 0.008902
363.87 -0.020860
364.515 0.032653
365.161 0.010620
365.807 -0.038896
366.453 0.060630
367.099 -0.022093
367.745 -0.001930
368.392 0.014957
369.038 0.016379
369.685 0.011786
370.331 -0.056972
370.978 -0.011662
371.625 0.012785
372.272 -0.016176
372.919 -0.047424
373.566 0.021513
374.214 -0.012848
374.861 -0.009815
375.509 -0.026006
376.156 -0.011653
376.804 -0.002824
377.452 0.016309
378.1 -0.027017
378.748 0.018371
379.397 0.001946
380.045 -0.022890
380.694 -0.048568
381.342 0.016439
381.991 -0.029411
382.64 0.011099
383.289 0.018866
383.938 -0.008327
384.587 -0.012237
385.237 -0.007506
385.886 -0.014425
386.536 0.001200
387.186 -0.032205
387.836 -0.019835
388.485 -0.014944
389.135 0.018662
389.786 0.001789
390.436 0.018483
391.086 0.010129
391.737 -0.017655
392.387 -0.018880
393.038 -0.015724
393.689 -0.001195
394.34 -0.020374
394.991 -0.021621
395.642 -0.013825
396.294 -0.018663
396.945 0.005195
397.597 -0.028690
398.248 -0.006214
398.9 -0.018663
399.552 -0.006253
400.204 -0.011616
400.856 -0.010836
401.509 -0.019480
402.161 -0.012741
402.813 -0.018966
403.466 -0.011491
404.119 -0.020552
404.772 -0.007514
405.425 -0.016892
406.078 -0.019021
406.731 -0.032024
407.384 -0.011384
408.038 -0.000713
408.691 -0.003377
409.345 -0.006849
409.998 -0.009971
410.652 -0.008079
411.306 -0.007484
411.961 -0.002534
412.615 -0.013808
413.269 -0.013388
413.923 -0.015251
414.578 -0.010126
415.233 -0.018049
415.887 0.010031
416.542 -0.007983
417.197 -0.024017
417.852 -0.005595
418.508 -0.022716
419.163 -0.034142
419.818 -0.008961
420.474 0.005787
421.13 0.000370
421.786 -0.008507
422.442 -0.004146
423.098 -0.026388
423.754 -0.023221
424.41 -0.009633
425.066 -0.009253
425.723 -0.020794
426.379 -0.008227
427.036 -0.007493
427.693 0.007769
428.35 0.001308
429.007 -0.009425
429.664 -0.021658
430.321 -0.008335
430.979 0.001394
431.636 -0.021190
432.294 -0.011747
432.952 -0.007843
433.609 0.017949
434.267 -0.009763
434.925 0.017472
435.584 -0.011815
436.242 -0.011099
436.9 -0.007371
437.559 -0.006191
438.217 -0.019473
438.876 -0.023972
439.535 -0.019599
440.194 -0.002178
440.853 0.002878
441.512 0.007399
442.171 -0.004417
442.831 -0.011953
443.49 -0.033820
444.15 -0.004073
444.81 -0.004030
445.469 -0.001425
446.129 0.000665
446.789 -0.005650
447.45 -0.010708
448.11 -0.027309
448.77 -0.017342
449.431 -0.005778
450.091 -0.014606
450.752 -0.009023
451.413 0.007089
452.074 -0.001284
452.735 -0.027410
453.396 -0.001467
454.057 -0.019179
454.719 -0.016520
455.38 -0.020829
456.042 -0.013944
456.704 -0.028554
457.365 -0.018451
458.027 -0.006198
458.689 -0.016499
459.352 -0.023982
460.014 -0.014974
460.676 -0.023815
461.339 -0.008426
462.001 -0.014682
462.664 -0.017053
463.327 0.000581
463.99 -0.000735
464.653 -0.006398
465.316 -0.012396
465.979 -0.007803
466.642 -0.006078
467.306 -0.016558
467.97 0.002598
468.633 -0.008391
469.297 -0.014148
469.961 -0.050651
470.625 -0.011141
471.289 0.006140
471.953 -0.030659
472.618 0.011420
473.282 0.003652
473.947 -0.000399
474.611 0.000384
475.276 -0.005511
475.941 -0.015961
476.606 -0.024152
477.271 -0.014288
477.936 0.007467
478.602 -0.006049
479.267 -0.019214
479.933 -0.020044
480.598 0.007037
481.264 -0.008510
481.93 -0.005667
482.596 -0.017524
483.262 -0.003469
483.928 -0.015792
484.594 -0.002217
485.261 -0.008415
485.927 0.031233
486.594 -0.041490
487.26 -0.023936
487.927 -0.021471
488.594 -0.016450
489.261 0.000424
489.928 -0.009628
490.596 -0.014808
491.263 -0.020989
491.93 0.004795
492.598 -0.005459
493.266 0.001430
493.933 0.007212
494.601 -0.002801
495.269 -0.011868
495.937 -0.008908
496.606 0.000015
497.274 -0.001154
497.942 -0.003121
498.611 -0.014993
499.279 -0.007892
499.948 -0.012339
500.617 -0.011709
501.286 0.014053
501.955 -0.020767
502.624 -0.008371
503.293 -0.011793
503.963 -0.020813
504.632 -0.008433
505.302 -0.004196
505.972 -0.016931
506.641 -0.012946
507.311 -0.025092
507.981 -0.000603
508.651 -0.023589
509.322 -0.023640
509.992 -0.000336
510.662 -0.010902
511.333 0.006152
512.004 0.001276
512.674 -0.003723
513.345 -0.018738
514.016 -0.011270
514.687 -0.022774
515.358 0.006631
516.029 0.015827
516.701 -0.002849
517.372 -0.010106
518.044 0.011992
518.716 -0.012343
519.387 0.013243
520.059 -0.006521
520.731 -0.007734
521.403 -0.007586
522.076 -0.008227
522.748 -0.027112
523.42 -0.006947
524.093 -0.011690
524.765 -0.020011
525.438 -0.002139
526.111 -0.012239
526.784 -0.004012
527.457 -0.009873
528.13 -0.001802
528.803 -0.021726
529.476 0.006946
530.15 -0.015892
530.823 0.021037
531.497 -0.004912
532.171 -0.025939
532.845 0.001179
533.519 -0.018002
534.193 -0.013438
534.867 -0.012065
535.541 -0.012374
536.216 -0.022243
536.89 -0.015361
537.564 0.014592
538.239 -0.010177
538.914 -0.016969
539.589 -0.015687
540.264 -0.020430
540.939 -0.019912
541.614 -0.011217
542.289 0.004704
542.965 -0.000496
543.64 -0.003010
544.316 -0.007237
544.991 -0.006262
545.667 -0.003759
546.343 0.008907
547.019 -0.004175
547.695 -0.005009
548.371 -0.000730
549.048 -0.012290
549.724 -0.000418
550.401 -0.044875
551.077 -0.009903
551.754 0.015928
552.431 -0.002075
553.108 0.005632
553.785 -0.001998
554.462 0.002401
555.139 -0.015818
555.816 -0.022646
556.494 -0.006010
557.171 -0.011561
557.849 -0.017611
558.527 -0.021176
559.204 -0.013697
559.882 -0.009790
560.56 -0.000527
561.238 -0.020680
561.917 -0.006552
562.595 -0.004948
563.273 -0.003210
563.952 -0.012494
564.63 0.002663
565.309 -0.011615
565.988 -0.014113
566.667 -0.018082
567.346 -0.001025
568.025 -0.018451
568.704 -0.006170
569.384 -0.011225
570.063 -0.010507
570.742 -0.018537
571.422 -0.010844
572.102 -0.007095
572.782 -0.014473
573.462 0.006198
574.141 -0.002249
574.822 -0.009192
575.502 -0.005496
576.182 0.002798
576.863 -0.001199
577.543 0.004441
578.224 -0.010696
578.904 -0.017284
579.585 -0.002111
580.266 -0.007395
580.947 -0.010736
581.628 0.001997
582.309 -0.015628
582.991 -0.026477
583.672 -0.016245
584.354 -0.006460
585.035 0.006333
585.717 -0.014711
586.399 -0.018410
587.08 -0.006596
587.762 -0.012267
588.444 -0.012683
589.127 -0.025760
589.809 -0.010990
590.491 -0.015094
591.174 -0.013210
591.856 -0.009133
592.539 0.011685
593.222 0.001747
593.905 -0.006149
594.587 -0.009157
595.27 0.000682
595.954 -0.012837
596.637 -0.005091
597.32 0.003676
598.004 -0.004748
598.687 0.017126
599.371 0.001786
600.055 0.003015
600.738 -0.010317
601.422 -0.017421
602.106 -0.004575
602.79 0.003779
603.475 0.000527
604.159 -0.001967
604.843 -0.008145
605.528 -0.002997
606.212 -0.018458
606.897 -0.012570
607.582 -0.005911
608.267 -0.018208
608.952 -0.008863
609.637 -0.010500
610.322 -0.001379
611.007 -0.006042
611.693 -0.004929
612.378 0.001004
613.064 -0.003932
613.749 -0.008326
614.435 -0.003732
615.121 -0.009090
615.807 -0.004709
616.493 -0.009769
617.179 0.000924
617.865 0.000530
618.552 -0.021974
619.238 -0.002664
619.924 -0.002962
620.611 -0.014819
621.298 -0.016672
621.985 0.005896
622.671 -0.003387
623.358 0.003831
624.045 -0.008625
624.733 -0.020573
625.42 -0.022498
626.107 -0.018450
626.795 -0.005767
627.482 -0.014603
628.17 -0.023216
628.858 -0.016385
629.545 -0.007937
630.233 -0.005784
630.921 -0.010808
631.609 0.004781
632.298 -0.009533
632.986 -0.020017
633.674 0.007642
634.363 -0.027902
635.051 0.006758
635.74 0.004733
636.429 -0.003153
637.118 -0.013370
637.807 0.003335
638.496 0.000531
639.185 -0.019360
639.874 -0.017042
640.563 -0.031536
641.253 -0.010635
641.942 -0.016620
642.632 -0.026426
643.322 0.001235
644.011 -0.013532
644.701 -0.026077
645.391 -0.000748
646.081 -0.035028
646.771 -0.036657
647.462 0.027907
648.152 -0.002013
648.842 0.001397
649.533 -0.000800
650.224 -0.000454
650.914 -0.017393
651.605 -0.001357
652.296 -0.012302
652.987 -0.015420
653.678 -0.011846
654.369 0.022455
655.061 0.077584
655.752 0.087146
656.443 0.001458
657.135 -0.007349
657.826 -0.010327
658.518 -0.009512
659.21 -0.017119
659.902 -0.095079
660.594 -0.021679
661.286 0.007128
661.978 -0.023429
662.67 0.033008
663.363 -0.017494
664.055 -0.019226
664.748 0.018150
665.44 0.029368
666.133 -0.008187
666.826 0.000462
667.519 -0.000375
668.212 -0.015372
668.905 0.012097
669.598 -0.039365
670.291 0.017854
670.985 -0.018417
671.678 0.013071
672.372 -0.010156
673.065 -0.025122
673.759 -0.027986
674.453 -0.015254
675.147 0.014009
675.841 0.007513
676.535 -0.027089
677.229 -0.017005
677.923 -0.002284
678.617 -0.004702
679.312 0.011928
680.006 0.021742
680.701 0.001283
681.396 0.010169
682.091 0.001589
682.785 -0.013235
683.48 -0.002286
684.175 0.003481
684.87 0.018827
685.566 0.014749
686.261 0.022343
686.957 -0.011811
687.652 -0.002998
688.348 -0.005387
689.043 -0.002509
689.739 -0.007203
690.435 -0.005517
691.131 0.021165
691.827 0.006668
692.523 0.000986
693.219 0.005454
693.915 -0.017664
694.612 0.005247
695.308 0.013337
696.005 0.017397
696.702 0.022191
697.398 0.014951
698.095 0.030508
698.792 -0.014241
699.489 -0.004097
700.186 -0.010661
700.883 -0.005412
701.581 -0.003213
702.278 0.020809
702.975 -0.010157
703.673 0.009701
704.37 0.001437
705.068 -0.043693
705.766 0.007051
706.464 0.029135
707.162 -0.021892
707.86 0.021575
708.558 -0.001712
709.256 -0.010273
709.955 -0.018941
710.653 -0.017543
711.351 -0.031946
712.05 -0.013692
712.749 0.000703
713.447 -0.014917
714.146 -0.007655
714.845 0.009213
715.544 -0.013205
716.243 -0.047375
716.942 -0.007122
717.642 -0.023621
718.341 0.007090
719.04 0.012439
719.74 -0.012878
720.439 0.009853
721.139 -0.017622
721.839 -0.000808
722.539 0.005298
723.239 -0.010350
723.939 -0.022143
724.639 0.047224
725.339 0.021142
726.039 0.000231
726.74 0.000902
727.44 0.011062
728.141 -0.003887
728.841 -0.018150
729.542 0.009495
730.243 -0.014822
730.944 0.035696
731.645 0.017528
732.346 -0.004881
733.047 0.000600
733.748 0.020387
734.449 0.008487
735.151 -0.011715
735.852 0.014037
736.554 0.016371
737.256 0.001057
737.957 -0.025383
738.659 -0.003665
739.361 0.011427
740.063 -0.013475
740.765 -0.004785
741.467 0.003513
742.169 -0.005557
742.872 -0.020154
743.574 -0.020395
744.277 -0.004473
744.979 0.009257
745.682 -0.010840
746.385 0.000073
747.087 0.003364
747.79 -0.001753
748.493 -0.005192
749.196 0.000364
749.899 -0.002236
750.603 0.000774
751.306 -0.000441
752.01 -0.000845
752.713 -0.000410
753.417 -0.003832
754.12 0.001076
754.824 -0.004542
755.528 0.000041
756.232 0.001113
756.936 0.000160
757.64 0.007768
758.344 -0.008807
759.048 0.001147
759.752 0.007343
760.457 -0.002921
761.161 0.007024
761.866 0.023494
762.571 -0.007309
763.275 0.005583
763.98 0.015719
764.685 0.008016
765.39 0.007363
766.095 -0.016460
766.8 -0.006782
767.505 -0.004105
768.211 0.019596
768.916 0.021066
769.621 -0.008867
770.327 -0.011503
771.033 0.006518
771.738 0.010351
772.444 0.013322
773.15 -0.024470
773.856 0.004466
774.562 -0.013331
775.268 -0.033786
775.974 -0.002209
776.68 0.012003
777.387 -0.003045
778.093 -0.002227
778.8 -0.001224
779.506 -0.004263
780.213 -0.009586
780.92 0.018068
781.626 0.008533
782.333 0.001264
783.04 -0.000689
783.747 0.002966
784.455 -0.007007
785.162 0.012053
785.869 0.000044
786.577 -0.015393
787.284 0.007917
787.992 -0.005659
788.699 -0.003134
789.407 -0.001232
790.115 0.014136
790.823 0.011418
791.531 -0.005719
792.239 -0.000759
792.947 -0.037840
793.655 0.017786
794.363 0.018115
795.072 0.016307
795.78 0.006380
796.489 0.002587
797.197 0.008990
797.906 0.017420
798.615 -0.004600
799.323 -0.017176
800.032 0.023739
800.741 -0.013154
801.45 0.019692
802.159 0.002815
802.869 -0.039347
803.578 0.010403
804.287 0.007590
804.997 -0.023423
805.706 -0.017581
806.416 0.012116
807.126 0.000573
807.835 -0.003365
808.545 0.003897
809.255 -0.010807
809.965 0.028849
810.675 -0.027363
811.385 0.012023
812.096 -0.013863
812.806 -0.001685
813.516 -0.030288
814.227 0.024773
814.937 -0.016993
815.648 -0.055544
816.359 0.012486
817.069 0.013624
817.78 -0.040676
818.491 -0.027320
819.202 -0.011093
819.913 -0.016280
820.624 0.047801
821.336 0.044742
822.047 0.034272
822.758 -0.002952
823.47 0.020502
824.181 0.084660
824.893 0.000484
825.605 0.025880
826.317 -0.021402
827.028 0.033325
827.74 0.018011
828.452 0.010128
829.164 -0.030640
829.876 -0.023425
830.589 -0.041404
831.301 0.051131
832.013 0.000654
832.726 0.030956
833.438 0.008735
834.151 0.028801
834.864 0.028447
835.577 -0.041546
836.289 0.053529
837.002 0.047577
837.715 -0.084284
838.428 -0.034176
839.141 0.078154
839.855 0.000437
840.568 0.089074
841.281 -0.011400
841.995 -0.093624
842.708 -0.027152
843.422 0.059182
844.135 0.082991
844.849 -0.006712
845.563 0.072771
846.277 -0.058581
846.991 0.042032
847.705 -0.075727
848.419 0.068169
849.133 0.041212
849.847 0.037004
850.562 0.074723
851.276 -0.111580
851.991 -0.028430
852.705 0.021154
853.42 -0.027742
854.135 0.030172
854.85 0.040130
855.564 0.029036
856.279 0.021370
856.994 -0.008324
857.709 -0.032871
858.424 -0.032730
859.14 0.027576
859.855 0.019090
860.57 0.065941
861.286 -0.014743
862.001 0.075018
862.717 -0.002364
863.433 0.013203
864.148 -0.057079
864.864 -0.003782
865.58 0.009955
866.296 0.019539
867.012 0.009406
867.728 -0.044149
868.444 0.084069
869.161 -0.023958
869.877 -0.039776
870.593 -0.101270
871.31 -0.023110
872.026 -0.045584
872.743 0.041590
873.46 0.045032
874.176 -0.014957
874.893 0.088548
875.61 0.120869
876.327 -0.001383
877.044 -0.014676
877.761 -0.003940
878.478 0.011343
879.196 0.124611
879.913 0.021391
880.63 0.080040
881.348 -0.015459
882.065 0.077833
882.783 0.042107
883.501 -0.030295
884.218 -0.084164
884.936 0.040684
885.654 -0.002548
886.372 0.012387
887.09 0.072712
887.808 0.037357
888.527 0.001361
889.245 0.098166
889.963 -0.042418
890.682 0.003947
891.4 0.054126
892.119 0.008590
892.837 0.077591
893.556 0.008502
894.275 0.059542
894.994 0.044952
895.712 0.032306
896.431 0.028632
897.15 -0.000680
897.87 -0.032533
898.589 0.046847
899.308 0.035696
900.027 -0.111089
900.747 0.006629
901.466 0.034630
902.186 0.042732
902.905 -0.017774
903.625 0.138958
904.345 0.023540
905.064 0.020172
905.784 0.074584
906.504 0.081831
907.224 0.073854
907.944 0.041800
908.664 -0.053207
909.385 -0.010934
910.105 -0.007144
910.825 0.041327
911.546 -0.015337
912.266 0.075488
912.987 -0.049993
913.707 -0.093842
914.428 0.014746
915.149 -0.006432
915.87 0.093041
916.591 -0.060574
917.312 0.053366
918.033 0.074656
918.754 0.080856
919.475 0.067341
920.196 -0.055709
920.918 -0.022757
921.639 0.129726
922.361 0.008723
923.082 -0.066247
923.804 0.204750
924.525 0.086488
925.247 0.039831
925.969 -0.041614
926.691 0.276131
927.413 -0.016913
928.135 0.099732
928.857 0.063596
929.579 -0.082293
930.301 0.300301
931.023 0.113169
931.746 0.204314
932.468 0.216543
933.191 0.185847
933.913 0.104001
934.636 -0.175940
935.358 0.131636
936.081 0.138583
936.804 0.229694
937.527 -0.049218
938.25 0.128162
938.973 0.354572
939.696 0.002706
940.419 -0.113106
941.142 -0.241826
941.865 0.130494
942.589 0.227957
943.312 0.346445
944.036 0.547732
944.759 0.212951
945.483 0.423350
946.207 -0.017424
946.93 -0.475573
947.654 -0.192958
948.378 -0.136471
949.102 -0.043926
949.826 0.242697
950.55 0.249308
951.274 0.078873
951.998 0.184321
952.723 -0.135035
953.447 0.078580
954.171 -1.332952
954.896 -0.000421
955.62 0.523614
956.345 0.153271
957.07 0.377762
957.794 -0.214361
958.519 0.255403
959.244 0.670147
959.969 0.024238
960.694 -0.174694
961.419 -0.165013
962.144 -0.217400
962.869 -0.250085
963.594 0.478977
964.32 0.366943
965.045 -0.226642
965.77 0.491462
966.496 -0.289092
967.222 -0.048740
967.947 -0.131930
968.673 3.067443
969.399 -0.013030
970.125 -0.008011
970.85 -0.143581
971.576 -0.402077
972.302 0.417146
973.028 0.237410
973.755 0.339488
974.481 -0.232662
975.207 0.068315
975.933 0.069081
976.66 0.697179
977.386 -0.336273
978.113 0.034762
978.839 3.206826
979.566 -0.299142
980.293 0.138196
981.019 -0.260442
981.746 -0.973128
982.473 0.298251
983.2 0.415151
983.927 0.753700
984.654 2.760422
985.381 0.135048
986.109 -2.736397
986.836 0.284767
987.563 2.700704
988.291 -0.297624
989.018 0.139386
989.746 0.461094
990.473 0.715399
991.201 0.279692
991.928 0.000000
992.656 3.161667
993.384 1.623663
994.112 0.797580
994.84 -3.124830
995.568 2.884795
996.296 2.827369
997.024 -0.882748
997.752 0.005210
998.481 0.068253
999.209 -1.826075
999.937 0.373581
1000.67 0.021458
1001.39 0.290230
1002.12 0.536910
1002.85 2.913284
1003.58 0.000000
1004.31 0.275286
1005.04 0.183407
1005.77 0.015265
1006.5 0.986839
1007.22 2.653213
1007.95 3.146128
1008.68 0.226582
1009.41 -1.977724
1010.14 -0.210483
1010.87 0.173575
1011.6 1.591065
1012.33 0.749049
1013.06 0.000000
1013.79 0.929250
1014.52 3.161967
1015.25 2.940516
1015.98 2.450249
1016.71 2.190332
1017.44 -0.212224
1018.17 3.231724
1018.9 3.021603
1019.63 -0.028241
1020.36 0.339659
1021.09 1.417898
1021.82 0.000000
1022.55 2.902003
1023.03 1.582464