File: Auto_Polymerization/Data/UV_VIS_Spectra/MRG-061-F-3_pure_compounds_spectra_test/DMSO+AIBN_spectrum_2025-06-19_14-43-24.txt
# Wavelength (nm)	Intensity (a.u.)
197.7802	0.001004
198.3922	0.001131
199.0044	-0.000980
199.6168	-0.000431
200.2292	-0.000093
200.8418	0.000878
201.4546	0.000814
202.0674	-0.000980
202.6805	-0.000262
203.2936	0.000244
203.9069	-0.000621
204.5203	0.000266
205.1338	-0.000410
205.7475	-0.000389
206.3614	0.000308
206.9753	-0.000790
207.5894	0.000624
208.2036	-0.000431
208.8180	0.000202
209.4325	-0.000410
210.0471	0.000667
210.6618	0.000055
211.2767	0.001764
211.8918	-0.000494
212.5069	0.001278
213.1222	0.000793
213.7376	-0.000072
214.3532	0.000392
214.9689	0.000118
215.5847	0.000181
216.2007	0.001110
216.8168	0.001046
217.4330	-0.000199
218.0494	0.000118
218.6659	0.000983
219.2825	0.000033
219.8992	0.000434
220.5161	0.000223
221.1332	0.001067
221.7503	0.000582
222.3676	-0.000283
222.9850	0.000392
223.6026	0.000244
224.2203	0.000814
224.8381	0.001152
225.4561	-0.001866
226.0742	0.000709
226.6924	0.000223
227.3107	0.000709
227.9292	0.000076
228.5478	0.000540
229.1666	-0.000536
229.7855	0.000139
230.4045	0.000181
231.0236	0.000667
231.6429	-0.000874
232.2623	-0.000811
232.8818	-0.000009
233.5015	0.001743
234.1213	0.000688
234.7413	0.000392
235.3613	0.000878
235.9815	-0.000051
236.6018	-0.001317
237.2223	-0.000832
237.8429	-0.000473
238.4636	-0.000389
239.0845	-0.001064
239.7055	0.000730
240.3266	-0.000220
240.9478	0.000582
241.5692	-0.000030
242.1907	0.001004
242.8124	0.001426
243.4341	-0.000220
244.0560	0.000413
244.6781	0.000455
245.3002	0.000202
245.9225	0.000878
246.5449	0.000202
247.1675	0.001321
247.7902	-0.000452
248.4130	0.000118
249.0359	0.000413
249.6590	-0.000072
250.2822	0.000308
250.9056	0.000160
251.5290	0.000055
252.1526	-0.000051
252.7763	0.000350
253.4002	0.000582
254.0242	0.001089
254.6483	-0.000178
255.2725	0.000329
255.8969	0.000624
256.5214	-0.000452
257.1460	0.001743
257.7708	-0.000220
258.3957	0.001679
259.0207	0.000793
259.6459	0.001004
260.2711	-0.000135
260.8965	-0.000030
261.5221	0.000856
262.1477	0.001004
262.7735	0.000076
263.3995	0.000413
264.0255	0.000033
264.6517	-0.000304
265.2780	-0.000705
265.9044	0.000498
266.5310	0.000941
267.1577	-0.000600
267.7845	0.000519
268.4114	0.001363
269.0385	0.000118
269.6657	0.001785
270.2931	0.001004
270.9205	0.000455
271.5481	0.000160
272.1758	-0.000114
272.8037	0.000667
273.4316	0.001848
274.0597	0.000392
274.6880	-0.000579
275.3163	-0.000726
275.9448	-0.000093
276.5734	0.000287
277.2022	0.000561
277.8310	0.000202
278.4600	0.000139
279.0891	-0.000283
279.7184	0.000350
280.3477	-0.000452
280.9772	0.000455
281.6069	0.000033
282.2366	-0.000093
282.8665	0.001447
283.4965	0.000160
284.1266	0.000076
284.7569	0.000709
285.3873	-0.000346
286.0178	0.001300
286.6484	0.000582
287.2792	0.001025
287.9101	0.000455
288.5411	-0.000874
289.1723	0.000540
289.8035	-0.000304
290.4349	0.000033
291.0665	0.000118
291.6981	0.001131
292.3299	0.000962
292.9618	0.002481
293.5938	0.000118
294.2260	0.000624
294.8582	-0.000346
295.4906	-0.000473
296.1232	0.000899
296.7558	0.000519
297.3886	0.000434
298.0215	0.000033
298.6545	0.001806
299.2877	-0.000093
299.9210	0.001848
300.5544	0.000392
301.1879	0.001152
301.8215	0.001384
302.4553	0.000329
303.0892	0.000392
303.7233	0.001827
304.3574	-0.000811
304.9917	0.000962
305.6261	0.000118
306.2606	0.000033
306.8953	0.000160
307.5301	-0.000093
308.1650	0.000308
308.8000	0.000793
309.4351	-0.000199
310.0704	0.002017
310.7058	-0.000072
311.3413	0.002228
311.9770	0.000371
312.6127	-0.000431
313.2486	-0.000705
313.8846	-0.000241
314.5208	0.000751
315.1570	0.001806
315.7934	0.000434
316.4299	0.001933
317.0666	0.000540
317.7033	0.001257
318.3402	0.000076
318.9772	0.001595
319.6143	0.002059
320.2516	0.000645
320.8890	0.001912
321.5265	0.001405
322.1641	0.000455
322.8018	0.001848
323.4397	0.001637
324.0777	0.001173
324.7158	0.000878
325.3540	0.002334
325.9924	0.001468
326.6308	0.000856
327.2694	0.001426
327.9082	0.001278
328.5470	0.000983
329.1860	0.003283
329.8251	0.001933
330.4643	0.002692
331.1036	0.001468
331.7431	0.002144
332.3826	0.002713
333.0223	0.001764
333.6622	0.001046
334.3021	0.002249
334.9422	0.001511
335.5823	0.001131
336.2227	0.002671
336.8631	0.001954
337.5036	0.004592
338.1443	0.002819
338.7851	0.001679
339.4260	0.002692
340.0670	0.001658
340.7082	0.003283
341.3495	0.001152
341.9909	0.004338
342.6324	0.002355
343.2740	0.002165
343.9158	0.002228
344.5577	0.002207
345.1997	0.004993
345.8418	0.003494
346.4840	0.003600
347.1264	0.003304
347.7689	0.001996
348.4115	0.004381
349.0542	0.000624
349.6971	0.004296
350.3400	0.003980
350.9831	0.003811
351.6263	0.003621
352.2696	0.003515
352.9131	0.004381
353.5566	0.004085
354.2003	0.003368
354.8441	0.004887
355.4881	0.003199
356.1321	0.004043
356.7763	0.005225
357.4206	0.004634
358.0650	0.003916
358.7095	0.004381
359.3541	0.005119
359.9989	0.006829
360.6438	0.006048
361.2888	0.004760
361.9339	0.006449
362.5791	0.004676
363.2245	0.006554
363.8699	0.005816
364.5155	0.005562
365.1612	0.007040
365.8071	0.005267
366.4530	0.007019
367.0991	0.006913
367.7453	0.008749
368.3916	0.007166
369.0380	0.007483
369.6845	0.007082
370.3312	0.009572
370.9780	0.006596
371.6249	0.007926
372.2719	0.008918
372.9190	0.007926
373.5663	0.010353
374.2136	0.010142
374.8611	0.011239
375.5087	0.011914
376.1564	0.011640
376.8043	0.012294
377.4522	0.014383
378.1003	0.013793
378.7485	0.013877
379.3968	0.016051
380.0452	0.013666
380.6938	0.015164
381.3424	0.014890
381.9912	0.015523
382.6401	0.017507
383.2891	0.017612
383.9382	0.018161
384.5875	0.016578
385.2368	0.019512
385.8863	0.019005
386.5359	0.019934
387.1856	0.021770
387.8355	0.020398
388.4854	0.022276
389.1355	0.022782
389.7856	0.022719
390.4359	0.022698
391.0863	0.024534
391.7369	0.023394
392.3875	0.027615
393.0383	0.028670
393.6891	0.027552
394.3401	0.027404
394.9912	0.027889
395.6425	0.026518
396.2938	0.027911
396.9453	0.029198
397.5968	0.030084
398.2485	0.034642
398.9003	0.033545
399.5522	0.032342
400.2043	0.033587
400.8564	0.032616
401.5087	0.031266
402.1610	0.032891
402.8135	0.033566
403.4661	0.031857
404.1189	0.034748
404.7717	0.033461
405.4246	0.033840
406.0777	0.033376
406.7309	0.034241
407.3842	0.029071
408.0376	0.032828
408.6911	0.035149
409.3448	0.034368
409.9985	0.031034
410.6524	0.034642
411.3064	0.034558
411.9605	0.034326
412.6147	0.034896
413.2690	0.036753
413.9234	0.035782
414.5780	0.035634
415.2326	0.035655
415.8874	0.034600
416.5423	0.034136
417.1973	0.035381
417.8524	0.036035
418.5077	0.036436
419.1630	0.036584
419.8185	0.036668
420.4741	0.042239
421.1298	0.041184
421.7856	0.042345
422.4415	0.043020
423.0975	0.042239
423.7536	0.041733
424.4099	0.041501
425.0663	0.041121
425.7228	0.040804
426.3793	0.037217
427.0361	0.039960
427.6929	0.041079
428.3498	0.039074
429.0068	0.039981
429.6640	0.045363
430.3213	0.048570
430.9787	0.044730
431.6362	0.041037
432.2938	0.040171
432.9515	0.037597
433.6093	0.044624
434.2673	0.044709
434.9253	0.041058
435.5835	0.041037
436.2418	0.041754
436.9001	0.043991
437.5586	0.042239
438.2173	0.043274
438.8760	0.044793
439.5348	0.048486
440.1938	0.042429
440.8528	0.047452
441.5120	0.055534
442.1713	0.051272
442.8307	0.052263
443.4902	0.054922
444.1498	0.052559
444.8095	0.051841
445.4694	0.052939
446.1293	0.051061
446.7894	0.054479
447.4496	0.053614
448.1098	0.051715
448.7702	0.050195
449.4307	0.051124
450.0914	0.048971
450.7521	0.049963
451.4129	0.046038
452.0739	0.047684
452.7349	0.049077
453.3961	0.046945
454.0574	0.046544
454.7188	0.046059
455.3803	0.047220
456.0419	0.049203
456.7036	0.047156
457.3654	0.048402
458.0274	0.051314
458.6894	0.052960
459.3516	0.051778
460.0138	0.051694
460.6762	0.051356
461.3387	0.052770
462.0013	0.045764
462.6640	0.045637
463.3268	0.048528
463.9897	0.050913
464.6528	0.053952
465.3159	0.055408
465.9792	0.058341
466.6425	0.052284
467.3060	0.048781
467.9696	0.046312
468.6333	0.045637
469.2970	0.044033
469.9610	0.042408
470.6250	0.040952
471.2891	0.038335
471.9533	0.041480
472.6177	0.043928
473.2821	0.045426
473.9467	0.046418
474.6113	0.043653
475.2761	0.049372
475.9410	0.046861
476.6060	0.047726
477.2711	0.042873
477.9363	0.047811
478.6016	0.045806
479.2670	0.047600
479.9325	0.049014
480.5982	0.053931
481.2639	0.050955
481.9298	0.053382
482.5957	0.050427
483.2618	0.051398
483.9280	0.049837
484.5943	0.059333
485.2606	0.057581
485.9271	0.184221
486.5937	0.129711
487.2605	0.097698
487.9273	0.060388
488.5942	0.054564
489.2612	0.052812
489.9284	0.054690
490.5956	0.051778
491.2630	0.052960
491.9304	0.049604
492.5980	0.051145
493.2657	0.050512
493.9334	0.053319
494.6013	0.052728
495.2693	0.049457
495.9374	0.050512
496.6056	0.058468
497.2739	0.053065
497.9423	0.049499
498.6109	0.050048
499.2795	0.051694
499.9482	0.054205
500.6171	0.051272
501.2860	0.053888
501.9551	0.053551
502.6242	0.053065
503.2935	0.054142
503.9628	0.053086
504.6323	0.050195
505.3019	0.050216
505.9716	0.049900
506.6414	0.053403
507.3113	0.048824
507.9813	0.047916
508.6514	0.050470
509.3216	0.048191
509.9919	0.050005
510.6623	0.046333
511.3329	0.047790
512.0035	0.048148
512.6742	0.042851
513.3451	0.042429
514.0160	0.044730
514.6871	0.044286
515.3582	0.041564
516.0295	0.042282
516.7008	0.040952
517.3723	0.040720
518.0439	0.041227
518.7155	0.038441
519.3873	0.041395
520.0592	0.040319
520.7312	0.036605
521.4033	0.038694
522.0755	0.037998
522.7478	0.037069
523.4202	0.037259
524.0927	0.037533
524.7653	0.037344
525.4380	0.037069
526.1108	0.035444
526.7837	0.037344
527.4568	0.036985
528.1299	0.038209
528.8031	0.039454
529.4765	0.041817
530.1499	0.039686
530.8234	0.038272
531.4971	0.037639
532.1708	0.039011
532.8447	0.039454
533.5186	0.042535
534.1927	0.045131
534.8668	0.045658
535.5411	0.043611
536.2155	0.043780
536.8899	0.038420
537.5645	0.040467
538.2392	0.044308
538.9139	0.045109
539.5888	0.046798
540.2638	0.044898
540.9389	0.045637
541.6140	0.044941
542.2893	0.048064
542.9647	0.045954
543.6402	0.048465
544.3158	0.050765
544.9915	0.051293
545.6673	0.048296
546.3432	0.043485
547.0192	0.044983
547.6953	0.050280
548.3715	0.058151
549.0478	0.054901
549.7242	0.049414
550.4007	0.046376
551.0773	0.042282
551.7540	0.044793
552.4308	0.055028
553.1077	0.051483
553.7847	0.051715
554.4618	0.049710
555.1390	0.047557
555.8163	0.053234
556.4937	0.053551
557.1712	0.049288
557.8488	0.049626
558.5266	0.047009
559.2044	0.045975
559.8823	0.048971
560.5603	0.054015
561.2384	0.059227
561.9166	0.060578
562.5949	0.055661
563.2733	0.056252
563.9519	0.057729
564.6305	0.060726
565.3092	0.061549
565.9880	0.058805
566.6669	0.063174
567.3459	0.072564
568.0250	0.078832
568.7043	0.091241
569.3836	0.109263
570.0630	0.138976
570.7425	0.146573
571.4221	0.166768
572.1018	0.185086
572.7816	0.157103
573.4615	0.182849
574.1415	0.205809
574.8216	0.223409
575.5018	0.218830
576.1821	0.199647
576.8626	0.226173
577.5431	0.238519
578.2237	0.292205
578.9044	0.242507
579.5851	0.244913
580.2660	0.252426
580.9470	0.241410
581.6281	0.372987
582.3093	0.355408
582.9906	0.277559
583.6720	0.223789
584.3535	0.227566
585.0351	0.259537
585.7167	0.267345
586.3985	0.227735
587.0804	0.238202
587.7624	0.251370
588.4445	0.220961
589.1266	0.191332
589.8089	0.178101
590.4913	0.164890
591.1737	0.141993
591.8563	0.147016
592.5389	0.167212
593.2217	0.220560
593.9046	0.206168
594.5875	0.185487
595.2705	0.210747
595.9537	0.186626
596.6369	0.158095
597.3203	0.157082
598.0037	0.151405
598.6872	0.163772
599.3709	0.195701
600.0546	0.189243
600.7384	0.190362
601.4223	0.196059
602.1064	0.177489
602.7905	0.179493
603.4747	0.202306
604.1590	0.178818
604.8434	0.165692
605.5279	0.169807
606.2125	0.182047
606.8972	0.159762
607.5819	0.165439
608.2668	0.155162
608.9518	0.146109
609.6369	0.138174
610.3220	0.155964
611.0073	0.144040
611.6927	0.144378
612.3781	0.131674
613.0637	0.131737
613.7493	0.129585
614.4351	0.129458
615.1209	0.127854
615.8068	0.133215
616.4929	0.117345
617.1790	0.111415
617.8652	0.111711
618.5515	0.103586
619.2379	0.093098
619.9244	0.093984
620.6110	0.097128
621.2977	0.076595
621.9845	0.080394
622.6714	0.084087
623.3584	0.090502
624.0454	0.088160
624.7326	0.093245
625.4199	0.081386
626.1072	0.080520
626.7947	0.073029
627.4822	0.071277
628.1698	0.062604
628.8576	0.058658
629.5454	0.065115
630.2333	0.061443
630.9213	0.054289
631.6094	0.051968
632.2976	0.051335
632.9859	0.042788
633.6743	0.044666
634.3628	0.043611
635.0514	0.042450
635.7400	0.041649
636.4288	0.044814
637.1177	0.041585
637.8066	0.037639
638.4957	0.040298
639.1848	0.040340
639.8740	0.036166
640.5633	0.037622
641.2528	0.032203
641.9423	0.031592
642.6319	0.029416
643.3216	0.029196
644.0113	0.030563
644.7012	0.024580
645.3912	0.027708
646.0812	0.025613
646.7714	0.024717
647.4616	0.023422
648.1520	0.030877
648.8424	0.032498
649.5329	0.033495
650.2236	0.030198
650.9143	0.028498
651.6051	0.026461
652.2960	0.031375
652.9870	0.030925
653.6780	0.032337
654.3692	0.035305
655.0605	0.063418
655.7518	0.965851
656.4433	1.000000
657.1348	0.868683
657.8264	0.528874
658.5181	0.400763
659.2099	0.316691
659.9018	0.087082
660.5938	0.028803
661.2859	0.022240
661.9781	0.022532
662.6704	0.021239
663.3627	0.021055
664.0552	0.022302
664.7477	0.021942
665.4403	0.023737
666.1330	0.025015
666.8259	0.021419
667.5188	0.020020
668.2117	0.019920
668.9048	0.020102
669.5980	0.019385
670.2913	0.021390
670.9846	0.021369
671.6781	0.029578
672.3716	0.034727
673.0652	0.032553
673.7589	0.029979
674.4527	0.029514
675.1466	0.025948
675.8406	0.024682
676.5347	0.024597
677.2288	0.023922
677.9231	0.027573
678.6174	0.028248
679.3119	0.032785
680.0064	0.034431
680.7010	0.033629
681.3957	0.033714
682.0905	0.034389
682.7854	0.030527
683.4803	0.031245
684.1754	0.035360
684.8705	0.037217
685.5658	0.045046
686.2611	0.044118
686.9565	0.040488
687.6520	0.042050
688.3476	0.039939
689.0433	0.035866
689.7390	0.037998
690.4349	0.032469
691.1308	0.038314
691.8269	0.038504
692.5230	0.040235
693.2192	0.040340
693.9155	0.038019
694.6119	0.031836
695.3083	0.034284
696.0049	0.029831
696.7016	0.035423
697.3983	0.037555
698.0951	0.035444
698.7920	0.037998
699.4890	0.034263
700.1861	0.031034
700.8833	0.029894
701.5806	0.028269
702.2779	0.029683
702.9753	0.028776
703.6729	0.027024
704.3705	0.029303
705.0682	0.025589
705.7660	0.024935
706.4638	0.030316
707.1618	0.036373
707.8599	0.036668
708.5580	0.037533
709.2562	0.033250
709.9545	0.032237
710.6529	0.033397
711.3514	0.032152
712.0500	0.029409
712.7486	0.028227
713.4474	0.031498
714.1462	0.033672
714.8451	0.035676
715.5441	0.034896
716.2432	0.030506
716.9424	0.026623
717.6416	0.026011
718.3410	0.028818
719.0404	0.029134
719.7399	0.028670
720.4395	0.027636
721.1392	0.029514
721.8390	0.028860
722.5388	0.028016
723.2388	0.025209
723.9388	0.029409
724.6389	0.026644
725.3391	0.030738
726.0394	0.032595
726.7398	0.032785
727.4403	0.029852
728.1408	0.031688
728.8414	0.032722
729.5421	0.036542
730.2429	0.035318
730.9438	0.043168
731.6448	0.044603
732.3458	0.040425
733.0470	0.041796
733.7482	0.043928
734.4495	0.052833
735.1509	0.047093
735.8524	0.048929
736.5539	0.047832
737.2556	0.050005
737.9573	0.039496
738.6591	0.039327
739.3610	0.046249
740.0630	0.042936
740.7651	0.040129
741.4672	0.034495
742.1695	0.034811
742.8718	0.034790
743.5742	0.030844
744.2767	0.029240
744.9792	0.028438
745.6819	0.028417
746.3846	0.029261
747.0874	0.030147
747.7903	0.030169
748.4933	0.029662
749.1964	0.031393
749.8995	0.037808
750.6028	0.040509
751.3061	0.038103
752.0095	0.038905
752.7130	0.035212
753.4166	0.035571
754.1202	0.041902
754.8239	0.041860
755.5278	0.043041
756.2317	0.045785
756.9356	0.050449
757.6397	0.059354
758.3438	0.056990
759.0481	0.055007
759.7524	0.056695
760.4568	0.065347
761.1613	0.060494
761.8658	0.052073
762.5705	0.048634
763.2752	0.048085
763.9800	0.049161
764.6849	0.054163
765.3898	0.055239
766.0949	0.049436
766.8000	0.041438
767.5052	0.039032
768.2105	0.043527
768.9159	0.047874
769.6214	0.044751
770.3269	0.044730
771.0325	0.048317
771.7382	0.044772
772.4440	0.038800
773.1499	0.037027
773.8558	0.037597
774.5618	0.032553
775.2679	0.030548
775.9741	0.025716
776.6804	0.025864
777.3868	0.023648
778.0932	0.023690
778.7997	0.027932
779.5063	0.032511
780.2130	0.028037
780.9197	0.030485
781.6265	0.038272
782.3335	0.035529
783.0405	0.032173
783.7475	0.033714
784.4547	0.030063
785.1619	0.028016
785.8692	0.028290
786.5766	0.029493
787.2841	0.029557
787.9917	0.030021
788.6993	0.030633
789.4070	0.030633
790.1148	0.026750
790.8227	0.025188
791.5306	0.023036
792.2387	0.022867
792.9468	0.021727
793.6550	0.021685
794.3632	0.031287
795.0716	0.032764
795.7800	0.030084
796.4885	0.021812
797.1971	0.021643
797.9058	0.023859
798.6145	0.022930
799.3233	0.021305
800.0322	0.020546
800.7412	0.018013
801.4503	0.017950
802.1594	0.018119
802.8686	0.015840
803.5779	0.017359
804.2873	0.015924
804.9968	0.015017
805.7063	0.016874
806.4159	0.022825
807.1256	0.024450
807.8354	0.021474
808.5452	0.022403
809.2551	0.022656
809.9651	0.021094
810.6752	0.017549
811.3853	0.018857
812.0956	0.016768
812.8059	0.013497
813.5163	0.015629
814.2267	0.018921
814.9373	0.018034
815.6479	0.015607
816.3586	0.013328
817.0694	0.012358
817.7802	0.014405
818.4912	0.013539
819.2022	0.012526
819.9133	0.012231
820.6244	0.012970
821.3357	0.015396
822.0470	0.013349
822.7584	0.013455
823.4698	0.012104
824.1814	0.009593
824.8930	0.013392
825.6047	0.012421
826.3165	0.012780
827.0283	0.011450
827.7402	0.013202
828.4522	0.010965
829.1643	0.012484
829.8765	0.012315
830.5887	0.009488
831.3010	0.009509
832.0134	0.006871
832.7259	0.008369
833.4384	0.008242
834.1510	0.011112
834.8637	0.009530
835.5765	0.009635
836.2893	0.009699
837.0022	0.007293
837.7152	0.006006
838.4283	0.006048
839.1414	0.006512
839.8546	0.007820
840.5679	0.006512
841.2813	0.007652
841.9947	0.007040
842.7082	0.006048
843.4218	0.005984
844.1355	0.006470
844.8492	0.004655
845.5631	0.005520
846.2770	0.004465
846.9909	0.005288
847.7050	0.004866
848.4191	0.006006
849.1333	0.004908
849.8475	0.005963
850.5619	0.004993
851.2763	0.004043
851.9908	0.006027
852.7053	0.007926
853.4200	0.013181
854.1347	0.013666
854.8495	0.014911
855.5643	0.011830
856.2792	0.011914
856.9942	0.011028
857.7093	0.009762
858.4245	0.009087
859.1397	0.009867
859.8550	0.008728
860.5704	0.005394
861.2858	0.007019
862.0013	0.007398
862.7169	0.005035
863.4326	0.006639
864.1483	0.006090
864.8642	0.005900
865.5800	0.006132
866.2960	0.005858
867.0120	0.005647
867.7281	0.005541
868.4443	0.005077
869.1606	0.003494
869.8769	0.004465
870.5933	0.005457
871.3097	0.006111
872.0263	0.005014
872.7429	0.004866
873.4596	0.004022
874.1763	0.006217
874.8932	0.006027
875.6101	0.006174
876.3270	0.004043
877.0441	0.005415
877.7612	0.005035
878.4784	0.006407
879.1957	0.008369
879.9130	0.008559
880.6304	0.008897
881.3479	0.006280
882.0654	0.007631
882.7831	0.004655
883.5007	0.007040
884.2185	0.004528
884.9363	0.005921
885.6542	0.006765
886.3722	0.006997
887.0903	0.005900
887.8084	0.006491
888.5266	0.005394
889.2448	0.005668
889.9632	0.004782
890.6816	0.004866
891.4001	0.004507
892.1186	0.004486
892.8372	0.003895
893.5559	0.003558
894.2747	0.004170
894.9935	0.003663
895.7124	0.003072
896.4314	0.005225
897.1504	0.005520
897.8695	0.004507
898.5887	0.004972
899.3079	0.005795
900.0272	0.003937
900.7466	0.004993
901.4661	0.003579
902.1856	0.004338
902.9052	0.004212
903.6249	0.004170
904.3446	0.002017
905.0644	0.005394
905.7843	0.005394
906.5043	0.004803
907.2243	0.003895
907.9444	0.004782
908.6645	0.005795
909.3847	0.003790
910.1050	0.003874
910.8254	0.004085
911.5458	0.003916
912.2663	0.005140
912.9869	0.003853
913.7075	0.003895
914.4283	0.004149
915.1490	0.003347
915.8699	0.004760
916.5908	0.003853
917.3118	0.004381
918.0328	0.004444
918.7539	0.002903
919.4751	0.003600
920.1964	0.003473
920.9177	0.003262
921.6391	0.002798
922.3606	0.003051
923.0821	0.004760
923.8037	0.002650
924.5254	0.002629
925.2471	0.002165
925.9689	0.002713
926.6908	0.004360
927.4127	0.001912
928.1347	0.003473
928.8568	0.001679
929.5789	0.002123
930.3011	0.003199
931.0234	0.003684
931.7457	0.003684
932.4681	0.002713
933.1906	0.001764
933.9131	0.002566
934.6358	0.001848
935.3584	0.001764
936.0812	0.000899
936.8040	0.002671
937.5269	0.002059
938.2498	0.001511
938.9728	0.002038
939.6959	0.001996
940.4190	0.001553
941.1422	0.001933
941.8655	0.000645
942.5889	-0.000114
943.3123	0.000645
944.0357	0.001300
944.7593	0.000709
945.4829	0.000055
946.2066	0.002334
946.9303	0.000878
947.6541	0.001785
948.3780	0.001004
949.1019	0.000540
949.8259	0.001110
950.5500	-0.000093
951.2741	0.000688
951.9983	0.001743
952.7226	0.001595
953.4469	0.001278
954.1713	0.001405
954.8958	0.000329
955.6203	0.001152
956.3449	0.000287
957.0696	0.002165
957.7943	0.000751
958.5191	0.000434
959.2439	0.000223
959.9688	0.001743
960.6938	0.001110
961.4189	0.000076
962.1440	0.000160
962.8692	-0.000051
963.5944	0.000308
964.3197	0.000308
965.0451	0.001194
965.7705	0.000519
966.4960	0.001975
967.2216	0.000878
967.9472	-0.000346
968.6729	0.001194
969.3987	0.001679
970.1245	-0.000494
970.8504	0.002165
971.5763	0.001511
972.3023	0.000540
973.0284	0.001321
973.7545	0.001468
974.4807	0.000287
975.2070	0.000962
975.9333	-0.000262
976.6597	0.000561
977.3862	0.001257
978.1127	0.000962
978.8393	-0.000832
979.5659	0.001405
980.2926	0.000434
981.0194	0.000055
981.7462	0.000033
982.4731	0.000455
983.2001	0.000266
983.9271	0.000899
984.6542	0.001004
985.3814	0.001890
986.1086	0.000287
986.8358	0.000730
987.5632	0.000667
988.2906	0.001173
989.0180	-0.000241
989.7456	0.000498
990.4732	-0.000642
991.2008	0.001110
991.9285	-0.000557
992.6563	0.001089
993.3841	-0.000114
994.1120	0.000751
994.8400	-0.000473
995.5680	0.000624
996.2961	0.000582
997.0242	0.001363
997.7524	-0.000093
998.4807	0.000350
999.2090	0.000498
999.9374	-0.000304
1000.67	0.000835
1001.39	-0.000114
1002.12	0.000392
1002.85	-0.000283
1003.58	-0.000093
1004.31	0.001743
1005.04	0.000350
1005.77	-0.000684
1006.5	0.000223
1007.22	0.000582
1007.95	-0.000072
1008.68	0.000139
1009.41	0.000920
1010.14	0.000413
1010.87	0.001363
1011.6	-0.000283
1012.33	0.001236
1013.06	0.000202
1013.79	0.000645
1014.52	0.000266
1015.25	-0.000114
1015.98	0.000287
1016.71	0.001490
1017.44	-0.000304
1018.17	-0.000093
1018.9	0.001321
1019.63	0.001236
1020.36	-0.000410
1021.09	-0.000579
1021.82	-0.001022
1022.55	-0.000325
1023.03	0.000730