File: Auto_Polymerization/Data/UV_VIS_Spectra/MRG-061-F-3_pure_compounds_spectra_test/DMSO+CTA_spectrum_2025-06-19_14-56-46.txt
# Wavelength (nm)	Intensity (a.u.)
197.7802	-0.000185
198.3922	0.000997
199.0044	0.000491
199.6168	0.000470
200.2292	0.001103
200.8418	0.001187
201.4546	-0.001071
202.0674	0.000322
202.6805	0.000301
203.2936	0.000047
203.9069	0.000575
204.5203	-0.000818
205.1338	0.000596
205.7475	-0.001156
206.3614	0.000596
206.9753	-0.000185
207.5894	0.001018
208.2036	0.000280
208.8180	-0.000755
209.4325	-0.000311
210.0471	-0.000818
210.6618	0.000491
211.2767	0.000364
211.8918	-0.000079
212.5069	-0.000417
213.1222	-0.000797
213.7376	-0.000417
214.3532	-0.000733
214.9689	0.001061
215.5847	-0.000586
216.2007	0.000069
216.8168	0.001061
217.4330	-0.000565
218.0494	-0.000586
218.6659	0.000660
219.2825	0.001398
219.8992	0.001040
220.5161	-0.000691
221.1332	0.001230
221.7503	0.000026
222.3676	0.000364
222.9850	-0.000100
223.6026	-0.000987
224.2203	-0.000164
224.8381	-0.001409
225.4561	-0.000544
226.0742	0.001018
226.6924	-0.000185
227.3107	-0.000860
227.9292	0.001356
228.5478	0.001293
229.1666	-0.000185
229.7855	0.000533
230.4045	0.001061
231.0236	0.000512
231.6429	-0.000227
232.2623	-0.000501
232.8818	-0.000142
233.5015	-0.000058
234.1213	-0.000290
234.7413	-0.000142
235.3613	-0.000354
235.9815	0.001567
236.6018	-0.000881
237.2223	-0.001282
237.8429	-0.001346
238.4636	0.000174
239.0845	-0.001198
239.7055	0.001018
240.3266	-0.001071
240.9478	0.000892
241.5692	0.000491
242.1907	0.000533
242.8124	-0.000269
243.4341	0.000491
244.0560	-0.001092
244.6781	-0.000649
245.3002	0.001040
245.9225	0.000090
246.5449	-0.000164
247.1675	-0.000670
247.7902	0.000976
248.4130	0.000090
249.0359	-0.000839
249.6590	-0.000607
250.2822	-0.001261
250.9056	-0.000332
251.5290	0.000554
252.1526	0.000005
252.7763	-0.000776
253.4002	0.001293
254.0242	-0.000417
254.6483	-0.000058
255.2725	0.000470
255.8969	-0.000248
256.5214	-0.001029
257.1460	0.001335
257.7708	-0.000459
258.3957	0.001230
259.0207	0.001314
259.6459	-0.000332
260.2711	0.000744
260.8965	0.000153
261.5221	0.000934
262.1477	-0.000691
262.7735	0.000322
263.3995	0.000406
264.0255	0.000913
264.6517	0.000132
265.2780	0.001061
265.9044	0.001040
266.5310	0.000090
267.1577	-0.000185
267.7845	0.000807
268.4114	0.000174
269.0385	0.000153
269.6657	0.000301
270.2931	-0.000565
270.9205	-0.000354
271.5481	0.000744
272.1758	0.000195
272.8037	-0.000248
273.4316	-0.000185
274.0597	-0.000311
274.6880	0.001441
275.3163	-0.000100
275.9448	-0.000185
276.5734	-0.000332
277.2022	-0.000100
277.8310	0.000237
278.4600	-0.000227
279.0891	-0.000565
279.7184	0.000744
280.3477	0.000470
280.9772	-0.000649
281.6069	0.000744
282.2366	-0.000649
282.8665	0.000280
283.4965	-0.001599
284.1266	0.000047
284.7569	0.000533
285.3873	0.000364
286.0178	-0.000354
286.6484	-0.002127
287.2792	-0.000100
287.9101	-0.000670
288.5411	0.000427
289.1723	-0.001029
289.8035	0.000765
290.4349	-0.000649
291.0665	0.001187
291.6981	-0.000459
292.3299	0.001208
292.9618	0.000828
293.5938	0.000322
294.2260	0.001377
294.8582	0.001799
295.4906	0.000385
296.1232	-0.001219
296.7558	-0.000037
297.3886	0.000069
298.0215	-0.001747
298.6545	0.000702
299.2877	-0.001282
299.9210	-0.000079
300.5544	0.000322
301.1879	0.000047
301.8215	0.000744
302.4553	0.000322
303.0892	0.000090
303.7233	-0.000902
304.3574	-0.002000
304.9917	0.000174
305.6261	0.000364
306.2606	0.000449
306.8953	0.000449
307.5301	0.000090
308.1650	-0.000818
308.8000	0.002137
309.4351	-0.000206
310.0704	-0.000417
310.7058	-0.000459
311.3413	0.000596
311.9770	-0.000417
312.6127	0.000259
313.2486	0.001715
313.8846	-0.000797
314.5208	0.000617
315.1570	-0.000037
315.7934	-0.000797
316.4299	-0.001514
317.0666	-0.000311
317.7033	-0.000966
318.3402	-0.000185
318.9772	-0.000269
319.6143	0.000153
320.2516	0.000322
320.8890	-0.000459
321.5265	0.000491
322.1641	-0.001367
322.8018	-0.000185
323.4397	-0.000691
324.0777	-0.000818
324.7158	-0.000079
325.3540	-0.000290
325.9924	0.000976
326.6308	-0.000733
327.2694	0.000237
327.9082	-0.000311
328.5470	-0.001514
329.1860	0.000976
329.8251	0.000702
330.4643	0.000132
331.1036	0.000216
331.7431	0.000237
332.3826	0.000449
333.0223	0.000934
333.6622	0.001335
334.3021	-0.000290
334.9422	0.000512
335.5823	0.000786
336.2227	0.000343
336.8631	0.000069
337.5036	-0.000480
338.1443	0.000111
338.7851	-0.000565
339.4260	0.000913
340.0670	-0.001261
340.7082	0.001504
341.3495	0.000322
341.9909	0.000723
342.6324	-0.000142
343.2740	0.000828
343.9158	-0.000185
344.5577	-0.000185
345.1997	0.000786
345.8418	-0.000058
346.4840	-0.001092
347.1264	0.000047
347.7689	-0.000164
348.4115	0.000617
349.0542	-0.000691
349.6971	0.000132
350.3400	-0.000923
350.9831	0.000280
351.6263	-0.000311
352.2696	0.001082
352.9131	-0.000459
353.5566	-0.000311
354.2003	-0.000290
354.8441	-0.000227
355.4881	0.001187
356.1321	0.000575
356.7763	0.000807
357.4206	0.001124
358.0650	-0.000311
358.7095	0.001314
359.3541	-0.000501
359.9989	-0.001578
360.6438	-0.000121
361.2888	0.000913
361.9339	0.001103
362.5791	0.001018
363.2245	-0.001979
363.8699	0.000301
364.5155	-0.001852
365.1612	0.002032
365.8071	-0.000987
366.4530	-0.000459
367.0991	0.000364
367.7453	-0.001135
368.3916	0.000575
369.0380	0.000765
369.6845	-0.000142
370.3312	-0.000354
370.9780	0.001145
371.6249	0.000554
372.2719	0.001377
372.9190	0.001124
373.5663	0.000744
374.2136	0.001567
374.8611	0.001419
375.5087	0.002665
376.1564	0.001166
376.8043	0.002897
377.4522	0.003129
378.1003	0.003847
378.7485	0.003066
379.3968	0.004459
380.0452	0.005725
380.6938	0.004459
381.3424	0.005704
381.9912	0.005958
382.6401	0.007836
383.2891	0.009546
383.9382	0.008807
384.5875	0.009250
385.2368	0.009483
385.8863	0.011340
386.5359	0.013620
387.1856	0.010686
387.8355	0.014844
388.4854	0.016744
389.1355	0.016258
389.7856	0.018453
390.4359	0.016300
391.0863	0.017989
391.7369	0.017693
392.3875	0.021176
393.0383	0.023899
393.6891	0.022823
394.3401	0.021113
394.9912	0.026390
395.6425	0.024490
396.2938	0.024997
396.9453	0.024195
397.5968	0.026200
398.2485	0.027445
398.9003	0.030717
399.5522	0.028944
400.2043	0.028437
400.8564	0.027656
401.5087	0.028353
402.1610	0.030801
402.8135	0.027276
403.4661	0.028859
404.1189	0.029556
404.7717	0.029345
405.4246	0.030485
406.0777	0.030231
406.7309	0.031139
407.3842	0.030696
408.0376	0.031076
408.6911	0.031814
409.3448	0.029619
409.9985	0.032173
410.6524	0.028353
411.3064	0.029978
411.9605	0.030928
412.6147	0.033588
413.2690	0.031836
413.9234	0.032448
414.5780	0.033271
415.2326	0.031793
415.8874	0.031688
416.5423	0.031667
417.1973	0.032828
417.8524	0.034791
418.5077	0.033398
419.1630	0.035255
419.8185	0.034368
420.4741	0.033799
421.1298	0.038358
421.7856	0.043002
422.4415	0.038928
423.0975	0.039075
423.7536	0.038843
424.4099	0.037577
425.0663	0.037809
425.7228	0.035783
426.3793	0.034770
427.0361	0.032511
427.6929	0.036817
428.3498	0.036310
429.0068	0.035740
429.6640	0.039371
430.3213	0.042263
430.9787	0.041397
431.6362	0.036606
432.2938	0.034390
432.9515	0.034221
433.6093	0.036859
434.2673	0.040637
434.9253	0.039329
435.5835	0.037345
436.2418	0.037450
436.9001	0.039519
437.5586	0.038632
438.2173	0.037915
438.8760	0.040089
439.5348	0.038759
440.1938	0.037218
440.8528	0.040764
441.5120	0.047519
442.1713	0.045893
442.8307	0.043339
443.4902	0.044922
444.1498	0.044373
444.8095	0.041524
445.4694	0.043381
446.1293	0.042537
446.7894	0.044458
447.4496	0.042875
448.1098	0.042833
448.7702	0.040215
449.4307	0.040532
450.0914	0.040110
450.7521	0.043065
451.4129	0.039920
452.0739	0.038674
452.7349	0.037809
453.3961	0.036564
454.0574	0.038147
454.7188	0.036817
455.3803	0.035867
456.0419	0.036733
456.7036	0.036289
457.3654	0.036310
458.0274	0.037134
458.6894	0.036859
459.3516	0.038674
460.0138	0.038801
460.6762	0.035445
461.3387	0.034938
462.0013	0.032743
462.6640	0.031139
463.3268	0.033609
463.9897	0.033820
464.6528	0.036015
465.3159	0.038886
465.9792	0.035804
466.6425	0.031392
467.3060	0.029894
467.9696	0.029661
468.6333	0.029260
469.2970	0.028163
469.9610	0.025651
470.6250	0.025567
471.2891	0.023688
471.9533	0.025567
472.6177	0.027065
473.2821	0.025947
473.9467	0.026664
474.6113	0.023984
475.2761	0.026791
475.9410	0.026601
476.6060	0.026369
477.2711	0.023984
477.9363	0.025567
478.6016	0.024997
479.2670	0.024427
479.9325	0.023730
480.5982	0.026200
481.2639	0.025208
481.9298	0.025018
482.5957	0.023815
483.2618	0.023836
483.9280	0.022400
484.5943	0.027255
485.2606	0.026580
485.9271	0.079475
486.5937	0.057502
487.2605	0.042917
487.9273	0.025419
488.5942	0.022168
489.2612	0.020353
489.9284	0.021493
490.5956	0.021028
491.2630	0.019530
491.9304	0.020522
492.5980	0.019572
493.2657	0.019129
493.9334	0.020015
494.6013	0.019340
495.2693	0.017461
495.9374	0.019403
496.6056	0.021957
497.2739	0.018453
497.9423	0.016744
498.6109	0.017841
499.2795	0.016427
499.9482	0.017757
500.6171	0.018137
501.2860	0.016511
501.9551	0.018897
502.6242	0.017630
503.2935	0.017377
503.9628	0.017377
504.6323	0.015963
505.3019	0.014591
505.9716	0.013957
506.6414	0.015667
507.3113	0.013915
507.9813	0.014274
508.6514	0.014760
509.3216	0.014865
509.9919	0.014401
510.6623	0.014422
511.3329	0.014295
512.0035	0.014084
512.6742	0.013725
513.3451	0.013303
514.0160	0.013134
514.6871	0.013409
515.3582	0.012037
516.0295	0.013071
516.7008	0.011467
517.3723	0.012607
518.0439	0.012649
518.7155	0.011868
519.3873	0.013282
520.0592	0.012058
520.7312	0.010833
521.4033	0.012480
522.0755	0.010960
522.7478	0.011910
523.4202	0.012163
524.0927	0.012374
524.7653	0.010095
525.4380	0.011213
526.1108	0.012269
526.7837	0.012417
527.4568	0.012269
528.1299	0.011910
528.8031	0.013113
529.4765	0.013303
530.1499	0.014907
530.8234	0.013683
531.4971	0.012290
532.1708	0.014380
532.8447	0.014781
533.5186	0.018158
534.1927	0.015583
534.8668	0.016934
535.5411	0.015878
536.2155	0.015562
536.8899	0.013957
537.5645	0.018179
538.2392	0.019846
538.9139	0.019931
539.5888	0.019467
540.2638	0.019319
540.9389	0.020670
541.6140	0.023055
542.2893	0.022970
542.9647	0.021915
543.6402	0.022654
544.3158	0.023878
544.9915	0.024596
545.6673	0.024553
546.3432	0.022780
547.0192	0.025419
547.6953	0.026073
548.3715	0.030379
549.0478	0.029260
549.7242	0.027910
550.4007	0.026516
551.0773	0.025208
551.7540	0.025419
552.4308	0.032595
553.1077	0.030400
553.7847	0.032532
554.4618	0.032110
555.1390	0.031477
555.8163	0.033229
556.4937	0.033229
557.1712	0.031709
557.8488	0.035128
558.5266	0.032807
559.2044	0.031477
559.8823	0.033714
560.5603	0.040384
561.2384	0.042875
561.9166	0.041777
562.5949	0.038506
563.2733	0.042516
563.9519	0.043297
564.6305	0.046822
565.3092	0.045851
565.9880	0.048933
566.6669	0.046949
567.3459	0.057460
568.0250	0.066769
568.7043	0.074705
569.3836	0.086061
570.0630	0.115675
570.7425	0.117385
571.4221	0.139885
572.1018	0.153078
572.7816	0.133912
573.4615	0.150228
574.1415	0.172243
574.8216	0.184676
575.5018	0.186364
576.1821	0.170893
576.8626	0.192422
577.5431	0.208042
578.2237	0.256231
578.9044	0.209330
579.5851	0.209963
580.2660	0.220622
580.9470	0.213446
581.6281	0.328292
582.3093	0.316430
582.9906	0.249497
583.6720	0.200591
584.3535	0.196053
585.0351	0.233097
585.7167	0.237846
586.3985	0.204475
587.0804	0.214184
587.7624	0.229255
588.4445	0.206839
589.1266	0.174692
589.8089	0.162935
590.4913	0.148920
591.1737	0.130471
591.8563	0.133068
592.5389	0.157278
593.2217	0.205509
593.9046	0.191430
594.5875	0.166819
595.2705	0.197910
595.9537	0.173236
596.6369	0.141300
597.3203	0.146450
598.0037	0.142186
598.6872	0.153627
599.3709	0.183663
600.0546	0.177352
600.7384	0.177626
601.4223	0.179357
602.1064	0.164307
602.7905	0.169415
603.4747	0.185246
604.1590	0.169837
604.8434	0.151051
605.5279	0.157278
606.2125	0.170006
606.8972	0.155442
607.5819	0.154028
608.2668	0.146577
608.9518	0.138492
609.6369	0.127643
610.3220	0.148244
611.0073	0.135938
611.6927	0.135432
612.3781	0.125532
613.0637	0.125005
613.7493	0.120234
614.4351	0.123696
615.1209	0.122028
615.8068	0.128825
616.4929	0.111580
617.1790	0.104193
617.8652	0.105987
618.5515	0.100541
619.2379	0.088045
619.9244	0.090367
620.6110	0.090979
621.2977	0.071455
621.9845	0.077914
622.6714	0.083993
623.3584	0.088235
624.0454	0.083507
624.7326	0.086040
625.4199	0.080995
626.1072	0.074389
626.7947	0.068141
627.4822	0.069470
628.1698	0.062378
628.8576	0.055181
629.5454	0.059698
630.2333	0.057735
630.9213	0.054611
631.6094	0.050178
632.2976	0.048722
632.9859	0.041334
633.6743	0.044922
634.3628	0.040553
635.0514	0.038717
635.7400	0.041608
636.4288	0.043719
637.1177	0.042199
637.8066	0.037872
638.4957	0.041988
639.1848	0.039603
639.8740	0.037656
640.5633	0.034155
641.2528	0.033894
641.9423	0.030361
642.6319	0.028678
643.3216	0.029347
644.0113	0.028398
644.7012	0.025961
645.3912	0.026363
646.0812	0.025678
646.7714	0.023560
647.4616	0.024041
648.1520	0.029295
648.8424	0.031582
649.5329	0.031269
650.2236	0.030576
650.9143	0.027668
651.6051	0.028070
652.2960	0.028986
652.9870	0.028474
653.6780	0.032702
654.3692	0.031663
655.0605	0.059201
655.7518	0.944090
656.4433	1.000000
657.1348	0.825259
657.8264	0.499336
658.5181	0.382151
659.2099	0.297887
659.9018	0.080623
660.5938	0.028359
661.2859	0.021561
661.9781	0.021175
662.6704	0.020238
663.3627	0.020694
664.0552	0.019888
664.7477	0.021520
665.4403	0.024132
666.1330	0.022976
666.8259	0.020806
667.5188	0.020080
668.2117	0.020085
668.9048	0.022126
669.5980	0.020311
670.2913	0.020522
670.9846	0.019720
671.6781	0.025588
672.3716	0.031667
673.0652	0.031941
673.7589	0.028775
674.4527	0.026917
675.1466	0.024237
675.8406	0.024406
676.5347	0.023245
677.2288	0.023561
677.9231	0.026981
678.6174	0.028458
679.3119	0.031899
680.0064	0.034558
680.7010	0.030970
681.3957	0.033883
682.0905	0.031097
682.7854	0.029387
683.4803	0.029324
684.1754	0.030379
684.8705	0.035128
685.5658	0.042769
686.2611	0.042284
686.9565	0.041355
687.6520	0.042242
688.3476	0.037703
689.0433	0.034390
689.7390	0.033756
690.4349	0.031350
691.1308	0.035361
691.8269	0.034622
692.5230	0.036247
693.2192	0.037366
693.9155	0.035888
694.6119	0.032722
695.3083	0.034136
696.0049	0.027593
696.7016	0.034833
697.3983	0.038083
698.0951	0.039730
698.7920	0.036543
699.4890	0.033735
700.1861	0.030252
700.8833	0.028416
701.5806	0.025778
702.2779	0.027825
702.9753	0.028881
703.6729	0.026559
704.3705	0.027741
705.0682	0.023139
705.7660	0.022675
706.4638	0.028226
707.1618	0.033355
707.8599	0.036458
708.5580	0.037682
709.2562	0.032279
709.9545	0.030822
710.6529	0.034242
711.3514	0.029640
712.0500	0.027382
712.7486	0.028733
713.4474	0.029134
714.1462	0.033419
714.8451	0.032553
715.5441	0.030949
716.2432	0.028859
716.9424	0.026453
717.6416	0.026411
718.3410	0.026664
719.0404	0.027530
719.7399	0.028712
720.4395	0.026770
721.1392	0.028986
721.8390	0.026094
722.5388	0.026706
723.2388	0.026664
723.9388	0.027572
724.6389	0.024891
725.3391	0.030632
726.0394	0.031392
726.7398	0.032258
727.4403	0.029556
728.1408	0.032785
728.8414	0.030421
729.5421	0.035551
730.2429	0.034896
730.9438	0.041693
731.6448	0.041904
732.3458	0.039962
733.0470	0.043994
733.7482	0.042833
734.4495	0.049207
735.1509	0.046294
735.8524	0.046885
736.5539	0.042980
737.2556	0.045577
737.9573	0.043994
738.6591	0.039688
739.3610	0.044648
740.0630	0.040046
740.7651	0.036521
741.4672	0.033609
742.1695	0.032173
742.8718	0.034706
743.5742	0.030379
744.2767	0.026643
744.9792	0.027656
745.6819	0.025672
746.3846	0.027783
747.0874	0.027424
747.7903	0.030759
748.4933	0.026580
749.1964	0.030358
749.8995	0.033250
750.6028	0.038020
751.3061	0.037197
752.0095	0.039603
752.7130	0.037028
753.4166	0.037260
754.1202	0.040236
754.8239	0.038442
755.5278	0.040870
756.2317	0.041988
756.9356	0.050431
757.6397	0.058051
758.3438	0.053281
759.0481	0.051677
759.7524	0.057629
760.4568	0.059951
761.1613	0.055962
761.8658	0.048975
762.5705	0.046442
763.2752	0.047497
763.9800	0.048827
764.6849	0.053112
765.3898	0.055666
766.0949	0.050030
766.8000	0.037155
767.5052	0.036564
768.2105	0.041228
768.9159	0.046949
769.6214	0.042516
770.3269	0.041819
771.0325	0.045619
771.7382	0.044268
772.4440	0.037809
773.1499	0.037851
773.8558	0.034537
774.5618	0.031223
775.2679	0.026960
775.9741	0.024722
776.6804	0.024174
777.3868	0.024406
778.0932	0.024448
778.7997	0.027846
779.5063	0.031287
780.2130	0.026622
780.9197	0.029640
781.6265	0.033461
782.3335	0.033018
783.0405	0.032321
783.7475	0.032384
784.4547	0.029788
785.1619	0.026664
785.8692	0.026791
786.5766	0.026538
787.2841	0.026010
787.9917	0.029873
788.6993	0.030084
789.4070	0.028859
790.1148	0.026158
790.8227	0.024849
791.5306	0.021683
792.2387	0.020712
792.9468	0.019762
793.6550	0.021978
794.3632	0.029788
795.0716	0.031540
795.7800	0.027804
796.4885	0.022379
797.1971	0.020522
797.9058	0.023772
798.6145	0.020522
799.3233	0.022084
800.0322	0.018918
800.7412	0.019825
801.4503	0.017841
802.1594	0.017546
802.8686	0.014506
803.5779	0.018284
804.2873	0.015287
804.9968	0.017905
805.7063	0.015942
806.4159	0.021514
807.1256	0.022443
807.8354	0.022210
808.5452	0.022168
809.2551	0.020480
809.9651	0.018812
810.6752	0.019150
811.3853	0.018770
812.0956	0.016343
812.8059	0.013979
813.5163	0.016153
814.2267	0.018390
814.9373	0.015984
815.6479	0.013366
816.3586	0.013409
817.0694	0.014063
817.7802	0.013535
818.4912	0.012058
819.2022	0.011488
819.9133	0.011636
820.6244	0.014190
821.3357	0.014042
822.0470	0.012839
822.7584	0.011340
823.4698	0.010496
824.1814	0.010559
824.8930	0.010622
825.6047	0.013324
826.3165	0.011171
827.0283	0.011826
827.7402	0.012986
828.4522	0.010221
829.1643	0.013113
829.8765	0.010179
830.5887	0.008596
831.3010	0.007203
832.0134	0.006633
832.7259	0.009504
833.4384	0.009187
834.1510	0.009567
834.8637	0.007836
835.5765	0.008765
836.2893	0.007351
837.0022	0.009293
837.7152	0.006295
838.4283	0.005768
839.1414	0.006063
839.8546	0.007414
840.5679	0.006126
841.2813	0.008216
841.9947	0.005472
842.7082	0.003889
843.4218	0.004016
844.1355	0.005177
844.8492	0.005409
845.5631	0.005915
846.2770	0.005029
846.9909	0.004649
847.7050	0.004628
848.4191	0.003868
849.1333	0.003910
849.8475	0.003952
850.5619	0.004459
851.2763	0.004311
851.9908	0.005346
852.7053	0.007878
853.4200	0.011847
854.1347	0.012733
854.8495	0.013725
855.5643	0.011488
856.2792	0.011171
856.9942	0.010812
857.7093	0.009609
858.4245	0.010960
859.1397	0.008174
859.8550	0.007984
860.5704	0.005937
861.2858	0.006675
862.0013	0.006274
862.7169	0.005852
863.4326	0.004839
864.1483	0.005641
864.8642	0.006190
865.5800	0.003931
866.2960	0.003509
867.0120	0.004881
867.7281	0.005831
868.4443	0.005725
869.1606	0.004121
869.8769	0.005430
870.5933	0.004396
871.3097	0.006190
872.0263	0.005725
872.7429	0.004459
873.4596	0.003910
874.1763	0.003488
874.8932	0.004459
875.6101	0.005852
876.3270	0.004902
877.0441	0.003298
877.7612	0.005472
878.4784	0.006063
879.1957	0.006401
879.9130	0.006760
880.6304	0.008111
881.3479	0.007140
882.0654	0.005894
882.7831	0.003720
883.5007	0.006084
884.2185	0.006422
884.9363	0.007140
885.6542	0.004860
886.3722	0.005810
887.0903	0.005219
887.8084	0.004459
888.5266	0.004332
889.2448	0.003995
889.9632	0.003762
890.6816	0.005451
891.4001	0.004754
892.1186	0.005177
892.8372	0.004480
893.5559	0.003805
894.2747	0.004691
894.9935	0.003762
895.7124	0.003108
896.4314	0.003720
897.1504	0.003678
897.8695	0.004712
898.5887	0.004396
899.3079	0.004353
900.0272	0.003193
900.7466	0.005071
901.4661	0.002580
902.1856	0.004375
902.9052	0.004987
903.6249	0.003446
904.3446	0.003108
905.0644	0.005303
905.7843	0.003805
906.5043	0.005725
907.2243	0.003847
907.9444	0.004058
908.6645	0.003530
909.3847	0.004586
910.1050	0.001863
910.8254	0.003699
911.5458	0.003319
912.2663	0.004670
912.9869	0.003805
913.7075	0.003129
914.4283	0.003699
915.1490	0.003805
915.8699	0.003108
916.5908	0.003193
917.3118	0.004269
918.0328	0.004944
918.7539	0.002158
919.4751	0.003826
920.1964	0.002348
920.9177	0.002390
921.6391	0.001715
922.3606	0.003066
923.0821	0.003298
923.8037	0.002770
924.5254	0.001483
925.2471	0.003214
925.9689	0.001905
926.6908	0.001905
927.4127	0.000427
928.1347	0.001905
928.8568	0.002179
929.5789	0.001251
930.3011	0.001293
931.0234	0.001799
931.7457	0.001483
932.4681	0.001863
933.1906	0.001082
933.9131	0.002412
934.6358	0.001546
935.3584	0.001757
936.0812	0.001694
936.8040	0.000892
937.5269	0.002179
938.2498	0.000216
938.9728	0.001757
939.6959	0.000449
940.4190	-0.000544
941.1422	0.000681
941.8655	0.001335
942.5889	0.000216
943.3123	0.000807
944.0357	0.001208
944.7593	0.000850
945.4829	0.001567
946.2066	-0.000459
946.9303	-0.000079
947.6541	-0.000860
948.3780	0.001061
949.1019	0.000660
949.8259	-0.000332
950.5500	0.000617
951.2741	0.000850
951.9983	0.001103
952.7226	0.002116
953.4469	0.001842
954.1713	0.000090
954.8958	0.000047
955.6203	0.000174
956.3449	0.001483
957.0696	-0.000269
957.7943	0.002454
958.5191	0.000005
959.2439	0.000259
959.9688	0.000660
960.6938	0.000047
961.4189	-0.000079
962.1440	0.000005
962.8692	0.000237
963.5944	0.001504
964.3197	0.001061
965.0451	0.002222
965.7705	-0.000839
966.4960	0.001230
967.2216	-0.000058
967.9472	0.001124
968.6729	-0.000269
969.3987	0.002897
970.1245	-0.000332
970.8504	0.000744
971.5763	0.002095
972.3023	0.000997
973.0284	0.000259
973.7545	-0.000206
974.4807	0.000343
975.2070	0.000596
975.9333	0.000216
976.6597	0.000955
977.3862	0.000617
978.1127	0.000554
978.8393	-0.000248
979.5659	0.001546
980.2926	-0.000100
981.0194	-0.000354
981.7462	0.000723
982.4731	0.000237
983.2001	-0.000100
983.9271	0.000385
984.6542	0.000301
985.3814	0.001715
986.1086	-0.000480
986.8358	-0.000565
987.5632	0.000828
988.2906	0.001040
989.0180	-0.000480
989.7456	0.001103
990.4732	-0.000733
991.2008	0.000301
991.9285	-0.001367
992.6563	0.000934
993.3841	-0.000733
994.1120	0.000639
994.8400	-0.001958
995.5680	0.000406
996.2961	0.000153
997.0242	0.000301
997.7524	-0.000691
998.4807	0.000195
999.2090	-0.001071
999.9374	0.001166
1000.67	0.000427
1001.39	0.000744
1002.12	0.000512
1002.85	-0.000860
1003.58	-0.001029
1004.31	-0.000142
1005.04	-0.000755
1005.77	-0.000058
1006.5	-0.001177
1007.22	-0.001536
1007.95	0.000195
1008.68	-0.000332
1009.41	0.000744
1010.14	0.000280
1010.87	-0.000501
1011.6	-0.000881
1012.33	0.000174
1013.06	-0.000185
1013.79	-0.000290
1014.52	0.000660
1015.25	0.000047
1015.98	-0.000058
1016.71	0.000385
1017.44	0.000364
1018.17	0.000639
1018.9	-0.000164
1019.63	0.000364
1020.36	0.001103
1021.09	0.000132
1021.82	-0.000987
1022.55	0.000026
1023.03	0.000280