File: Auto_Polymerization/Data/UV_VIS_Spectra/MRG-061-F-3_pure_compounds_spectra_test/DMSO+Anisole_spectrum_average_absorbance.txt
# Wavelength	Absorbance
197.78 -0.046790
198.392 0.146851
199.004 -0.097643
199.617 0.031445
200.229 -0.496102
200.842 -0.102748
201.455 0.435562
202.067 -0.029863
202.68 0.149762
203.294 2.745075
203.907 -1.026834
204.52 0.757606
205.134 1.361378
205.748 -0.043767
206.361 -2.742725
206.975 -0.172401
207.589 -3.019532
208.204 0.426377
208.818 -0.241648
209.433 0.382904
210.047 0.263357
210.662 3.055378
211.277 0.108608
211.892 -0.104324
212.507 0.227060
213.122 2.866287
213.738 0.035549
214.353 0.000000
214.969 0.042220
215.585 2.846955
216.201 -0.122216
216.817 0.740363
217.433 0.030053
218.049 -2.496930
218.666 0.216792
219.282 0.207363
219.899 0.770711
220.516 -2.629410
221.133 0.181844
221.75 0.771935
222.368 0.328953
222.985 -1.255273
223.603 -0.359654
224.22 0.150177
224.838 0.503031
225.456 0.229967
226.074 0.046997
226.692 0.000000
227.311 0.840093
227.929 0.266978
228.548 0.463788
229.167 -2.795185
229.786 0.627338
230.405 -0.726408
231.024 0.090392
231.643 -0.127216
232.262 3.280123
232.882 -0.194605
233.501 0.051970
234.121 0.000000
234.741 0.234877
235.361 0.011617
235.982 0.580022
236.602 0.000000
237.222 1.774517
237.843 -0.757268
238.464 0.164060
239.084 -2.906335
239.706 -0.296067
240.327 2.190332
240.948 0.080248
241.569 0.298004
242.191 0.271319
242.812 2.587711
243.434 0.370458
244.056 -2.374748
244.678 0.720698
245.3 -0.218407
245.923 -0.055583
246.545 -0.163707
247.167 0.223262
247.79 1.845098
248.413 -0.261438
249.036 0.365958
249.659 1.010724
250.282 3.189490
250.906 -0.757537
251.529 -0.542850
252.153 0.414528
252.776 0.159894
253.4 0.028130
254.024 2.872739
254.648 0.005201
255.273 0.446326
255.897 -0.041319
256.521 0.392800
257.146 -0.151076
257.771 -2.651278
258.396 0.750347
259.021 3.026125
259.646 0.943110
260.271 -0.104735
260.897 0.302975
261.522 3.142702
262.148 -0.029222
262.774 -0.010619
263.399 0.422209
264.026 0.061746
264.652 0.191269
265.278 0.430432
265.904 0.453922
266.531 2.294466
267.158 -0.036891
267.784 -0.094210
268.411 -0.089660
269.038 -0.492098
269.666 -0.032587
270.293 -2.534026
270.921 0.459036
271.548 2.691965
272.176 0.600002
272.804 0.134548
273.432 0.520806
274.06 0.117946
274.688 0.141767
275.316 1.536864
275.945 0.227685
276.573 0.040766
277.202 0.601671
277.831 0.172143
278.46 0.072780
279.089 -0.358415
279.718 0.344374
280.348 0.023931
280.977 -0.097725
281.607 -2.374748
282.237 0.350672
282.866 0.266646
283.497 0.087600
284.127 -1.697727
284.757 0.046167
285.387 -2.784617
286.018 0.551521
286.648 0.424643
287.279 0.163008
287.91 -0.049997
288.541 3.352954
289.172 -2.651278
289.803 -3.149527
290.435 -2.093422
291.067 0.283401
291.698 0.368964
292.33 0.305776
292.962 -2.690196
293.594 0.595083
294.226 0.000000
294.858 0.233457
295.491 0.000000
296.123 1.127154
296.756 0.302862
297.389 0.419129
298.022 0.147918
298.654 0.392919
299.288 -2.789581
299.921 0.320703
300.554 0.381987
301.188 0.070661
301.822 0.411462
302.455 -0.121718
303.089 -0.292373
303.723 -0.159939
304.357 -0.533642
304.992 -0.024942
305.626 2.294466
306.261 3.051153
306.895 -0.353720
307.53 0.229234
308.165 -2.906335
308.8 0.054679
309.435 -0.386708
310.07 0.136934
310.706 1.028324
311.341 0.349994
311.977 0.271713
312.613 -0.009591
313.249 0.213770
313.885 -0.247490
314.521 0.503856
315.157 0.070603
315.793 -0.386202
316.43 0.217678
317.067 0.276489
317.703 0.186733
318.34 0.023520
318.977 0.122672
319.614 -0.032819
320.252 0.067631
320.889 -0.765066
321.526 0.166358
322.164 -0.064149
322.802 -0.004671
323.44 0.122513
324.078 0.056091
324.716 0.185371
325.354 0.056522
325.992 -0.197708
326.631 0.237889
327.269 -0.082164
327.908 0.031129
328.547 0.252156
329.186 0.088059
329.825 0.015037
330.464 0.076575
331.104 0.038200
331.743 0.009500
332.383 0.048852
333.022 0.002875
333.662 0.057443
334.302 0.150906
334.942 -0.042826
335.582 -0.053024
336.223 -0.032559
336.863 -0.036007
337.504 0.005019
338.144 0.115831
338.785 0.046054
339.426 -0.020732
340.067 0.053057
340.708 -0.004502
341.349 -0.006721
341.991 0.044627
342.632 0.066509
343.274 0.019468
343.916 0.072697
344.558 0.046848
345.2 0.009708
345.842 -0.000176
346.484 0.059075
347.126 0.056838
347.769 0.077908
348.411 0.029980
349.054 0.096781
349.697 0.021541
350.34 0.085267
350.983 -0.006200
351.626 0.060601
352.27 0.034726
352.913 -0.022797
353.557 0.044202
354.2 -0.020634
354.844 0.014952
355.488 0.056817
356.132 0.039774
356.776 -0.003716
357.421 0.072961
358.065 0.017469
358.709 -0.001809
359.354 0.032274
359.999 -0.045221
360.644 -0.028608
361.289 0.034608
361.934 0.026510
362.579 0.055610
363.224 -0.010936
363.87 -0.015630
364.515 0.063092
365.161 0.025196
365.807 0.005127
366.453 0.066831
367.099 0.016207
367.745 0.032827
368.392 0.022271
369.038 0.089060
369.685 0.071618
370.331 -0.007391
370.978 0.017626
371.625 0.057144
372.272 -0.029045
372.919 0.002278
373.566 0.012216
374.214 0.023301
374.861 -0.030404
375.509 0.005874
376.156 0.024207
376.804 0.013592
377.452 0.045776
378.1 0.004067
378.748 0.039783
379.397 0.046208
380.045 0.016387
380.694 -0.010131
381.342 0.054057
381.991 0.025839
382.64 0.016736
383.289 0.026225
383.938 0.034184
384.587 0.012292
385.237 0.010077
385.886 0.004298
386.536 0.026971
387.186 0.023927
387.836 0.014069
388.485 0.023273
389.135 0.034349
389.786 0.031753
390.436 0.035823
391.086 0.033224
391.737 0.022334
392.387 0.010031
393.038 0.011696
393.689 0.029696
394.34 0.014812
394.991 -0.005685
395.642 0.028484
396.294 0.016559
396.945 0.030333
397.597 0.022456
398.248 0.028109
398.9 0.030550
399.552 0.027082
400.204 0.020992
400.856 0.028885
401.509 0.032148
402.161 -0.001220
402.813 0.015829
403.466 0.015085
404.119 0.014866
404.772 0.028145
405.425 0.024389
406.078 0.033994
406.731 0.018824
407.384 0.011758
408.038 0.048751
408.691 0.023196
409.345 0.005322
409.998 0.023791
410.652 0.034907
411.306 0.019110
411.961 0.024192
412.615 0.007737
413.269 0.017952
413.923 0.026545
414.578 0.009005
415.233 0.020442
415.887 0.037531
416.542 0.019171
417.197 0.020977
417.852 0.013726
418.508 0.026081
419.163 -0.012599
419.818 0.013792
420.474 0.036572
421.13 0.023927
421.786 0.020798
422.442 0.041969
423.098 0.025223
423.754 0.002130
424.41 0.022358
425.066 0.034195
425.723 0.030248
426.379 0.024626
427.036 0.019097
427.693 0.027218
428.35 0.013535
429.007 0.023847
429.664 0.008006
430.321 0.029981
430.979 0.029790
431.636 0.022266
432.294 0.033873
432.952 0.031115
433.609 0.034026
434.267 0.041137
434.925 0.035308
435.584 0.024586
436.242 0.019139
436.9 0.029127
437.559 0.011503
438.217 0.014903
438.876 0.007793
439.535 0.018270
440.194 0.033616
440.853 0.029931
441.512 0.036149
442.171 0.019773
442.831 0.015449
443.49 0.019399
444.15 0.026479
444.81 0.018098
445.469 0.024544
446.129 0.026475
446.789 0.029823
447.45 0.014889
448.11 0.013092
448.77 0.014395
449.431 0.013540
450.091 0.026830
450.752 0.032522
451.413 0.039898
452.074 0.018154
452.735 -0.016104
453.396 0.020246
454.057 0.021630
454.719 0.022462
455.38 0.017148
456.042 0.013826
456.704 0.004625
457.365 0.025210
458.027 0.038875
458.689 0.014201
459.352 0.008105
460.014 0.022087
460.676 0.018137
461.339 0.017315
462.001 0.030806
462.664 0.013312
463.327 0.014708
463.99 0.028776
464.653 0.012764
465.316 0.015834
465.979 0.019422
466.642 0.019797
467.306 0.028876
467.97 0.023500
468.633 0.040423
469.297 0.002277
469.961 -0.000531
470.625 0.032730
471.289 0.021680
471.953 0.001128
472.618 0.029349
473.282 0.033539
473.947 0.028184
474.611 0.033200
475.276 0.018420
475.941 0.007885
476.606 0.016050
477.271 0.030656
477.936 0.038833
478.602 0.028011
479.267 0.023725
479.933 0.024766
480.598 0.036019
481.264 0.024979
481.93 0.006798
482.596 0.009446
483.262 0.026855
483.928 0.015838
484.594 0.010472
485.261 0.031700
485.927 0.023357
486.594 0.027256
487.26 0.018325
487.927 0.018077
488.594 0.020113
489.261 0.019237
489.928 0.023884
490.596 0.008014
491.263 0.003797
491.93 0.031967
492.598 0.011498
493.266 0.024235
493.933 0.013760
494.601 0.026918
495.269 0.027199
495.937 0.018995
496.606 0.018635
497.274 0.035953
497.942 0.015394
498.611 0.014032
499.279 0.018189
499.948 0.020499
500.617 0.010518
501.286 0.029635
501.955 0.011465
502.624 0.012520
503.293 0.025714
503.963 0.010838
504.632 0.015575
505.302 0.032493
505.972 0.010327
506.641 0.023170
507.311 0.009983
507.981 0.021764
508.651 0.009313
509.322 0.018867
509.992 0.031820
510.662 0.016681
511.333 0.018437
512.004 0.030510
512.674 0.020381
513.345 0.013159
514.016 0.012842
514.687 0.022609
515.358 0.029720
516.029 0.019697
516.701 0.016937
517.372 0.026765
518.044 0.036483
518.716 0.016278
519.387 0.034953
520.059 0.014786
520.731 0.011306
521.403 0.024068
522.076 0.004879
522.748 0.005390
523.42 0.010873
524.093 0.021818
524.765 0.026005
525.438 0.032723
526.111 -0.000957
526.784 0.010315
527.457 0.015410
528.13 0.016761
528.803 0.016914
529.476 0.026904
530.15 0.016860
530.823 0.044566
531.497 0.009767
532.171 0.010020
532.845 0.014623
533.519 0.009711
534.193 0.028368
534.867 0.013709
535.541 0.012935
536.216 0.005829
536.89 -0.003065
537.564 0.037641
538.239 0.006550
538.914 0.026953
539.589 0.027947
540.264 0.017796
540.939 0.006136
541.614 0.014491
542.289 0.023850
542.965 0.025067
543.64 0.019729
544.316 0.020736
544.991 0.025380
545.667 0.039773
546.343 0.037686
547.019 0.009907
547.695 0.021288
548.371 0.017431
549.048 0.021212
549.724 0.021478
550.401 -0.001150
551.077 0.030236
551.754 0.028566
552.431 0.030094
553.108 0.024424
553.785 0.011787
554.462 0.018975
555.139 0.023451
555.816 0.009454
556.494 0.030008
557.171 0.007513
557.849 0.006216
558.527 0.002743
559.204 0.003724
559.882 0.007162
560.56 0.015133
561.238 0.007965
561.917 0.031051
562.595 0.037450
563.273 0.008184
563.952 0.003839
564.63 0.020278
565.309 0.016232
565.988 0.015376
566.667 0.005336
567.346 0.010947
568.025 0.015171
568.704 0.012190
569.384 0.008490
570.063 0.009583
570.742 0.019219
571.422 0.012739
572.102 0.020664
572.782 0.035009
573.462 0.021452
574.141 0.019313
574.822 0.018502
575.502 0.023574
576.182 0.030091
576.863 0.025510
577.543 0.026524
578.224 0.025644
578.904 0.023709
579.585 0.020463
580.266 0.017385
580.947 0.014472
581.628 0.021480
582.309 0.022613
582.991 0.016163
583.672 0.019022
584.354 0.013101
585.035 0.025616
585.717 0.019136
586.399 0.017572
587.08 0.015896
587.762 0.014674
588.444 0.027540
589.127 0.020360
589.809 0.020767
590.491 0.016983
591.174 0.018600
591.856 0.016281
592.539 0.016216
593.222 0.026935
593.905 0.022333
594.587 0.021878
595.27 0.024703
595.954 0.027150
596.637 0.030835
597.32 0.027560
598.004 0.028614
598.687 0.032196
599.371 0.031186
600.055 0.022222
600.738 0.019178
601.422 0.017533
602.106 0.023964
602.79 0.029768
603.475 0.025261
604.159 0.034042
604.843 0.024339
605.528 0.017356
606.212 0.014510
606.897 0.011024
607.582 0.026549
608.267 0.019037
608.952 0.023565
609.637 0.020576
610.322 0.025464
611.007 0.017059
611.693 0.017321
612.378 0.022467
613.064 0.022441
613.749 0.026318
614.435 0.020819
615.121 0.008100
615.807 0.030100
616.493 0.021933
617.179 0.011207
617.865 0.018121
618.552 0.010885
619.238 0.028561
619.924 0.026815
620.611 0.021500
621.298 0.016954
621.985 0.025264
622.671 0.036811
623.358 0.016694
624.045 0.025993
624.733 0.007682
625.42 0.015596
626.107 0.009559
626.795 0.027585
627.482 0.016290
628.17 0.020911
628.858 0.011211
629.545 0.009921
630.233 0.034144
630.921 0.025919
631.609 0.022108
632.298 0.014751
632.986 0.019856
633.674 0.023679
634.363 0.023867
635.051 0.031836
635.74 0.028230
636.429 0.013848
637.118 0.014004
637.807 0.040231
638.496 0.025948
639.185 0.001253
639.874 0.007987
640.563 0.002896
641.253 0.018381
641.942 0.011763
642.632 0.005632
643.322 0.030829
644.011 0.007706
644.701 -0.001519
645.391 0.020246
646.081 0.001443
646.771 -0.000320
647.462 0.013547
648.152 0.020587
648.842 0.010739
649.533 0.017908
650.224 0.026529
650.914 0.012474
651.605 0.003502
652.296 -0.015223
652.987 0.011001
653.678 0.017302
654.369 0.041599
655.061 0.053757
655.752 0.036487
656.443 0.001458
657.135 0.040278
657.826 0.039315
658.518 0.035376
659.21 0.039085
659.902 0.037834
660.594 0.041794
661.286 0.039734
661.978 0.025436
662.67 0.048956
663.363 0.030792
664.055 -0.003032
664.748 0.042271
665.44 0.036690
666.133 0.034753
666.826 0.021182
667.519 0.015466
668.212 0.009543
668.905 0.026782
669.598 0.028809
670.291 0.046019
670.985 0.032884
671.678 0.020866
672.372 0.013029
673.065 0.008572
673.759 0.015347
674.453 0.020234
675.147 0.024300
675.841 0.044978
676.535 0.000000
677.229 0.021577
677.923 0.011635
678.617 0.012270
679.312 0.026864
680.006 0.040265
680.701 0.033677
681.396 0.010922
682.091 0.025202
682.785 0.022304
683.48 0.011971
684.175 0.039492
684.87 0.019270
685.566 0.036156
686.261 0.041022
686.957 -0.000399
687.652 0.012379
688.348 0.024285
689.043 0.042309
689.739 0.020087
690.435 0.016110
691.131 0.031254
691.827 0.036334
692.523 0.039821
693.219 0.026786
693.915 0.000867
694.612 0.027654
695.308 0.022815
696.005 0.034520
696.702 0.025133
697.398 0.042294
698.095 0.036597
698.792 0.018927
699.489 0.017721
700.186 0.001356
700.883 0.018889
701.581 0.024532
702.278 0.021483
702.975 0.003074
703.673 0.045814
704.37 0.010724
705.068 0.007416
705.766 0.020702
706.464 0.025832
707.162 -0.003260
707.86 0.047699
708.558 0.014960
709.256 0.013312
709.955 0.006775
710.653 -0.007733
711.351 0.002120
712.05 0.030284
712.749 0.029945
713.447 0.008842
714.146 0.003809
714.845 0.018613
715.544 0.020475
716.243 -0.018439
716.942 0.019437
717.642 0.005886
718.341 0.023211
719.04 0.029971
719.74 0.017914
720.439 0.021173
721.139 -0.006440
721.839 0.032050
722.539 0.017808
723.239 0.018013
723.939 0.009174
724.639 0.055197
725.339 0.041493
726.039 0.019205
726.74 0.029232
727.44 0.024682
728.141 0.022106
728.841 0.020064
729.542 0.023652
730.243 0.018516
730.944 0.041488
731.645 0.025628
732.346 0.020902
733.047 0.036554
733.748 0.029007
734.449 0.027783
735.151 0.011341
735.852 0.038326
736.554 0.044493
737.256 0.021460
737.957 0.006548
738.659 0.025537
739.361 0.033534
740.063 0.010372
740.765 0.018225
741.467 0.018922
742.169 0.004502
742.872 -0.006090
743.574 0.009566
744.277 0.008190
744.979 0.019123
745.682 -0.004683
746.385 0.034976
747.087 0.003201
747.79 0.037721
748.493 0.027203
749.196 0.017003
749.899 0.007750
750.603 0.026977
751.306 0.034040
752.01 0.016298
752.713 0.011916
753.417 0.015976
754.12 0.023732
754.824 0.014909
755.528 0.030838
756.232 0.035340
756.936 0.023322
757.64 0.027996
758.344 0.018790
759.048 0.023559
759.752 0.026170
760.457 0.021249
761.161 0.025324
761.866 0.052510
762.571 0.020892
763.275 0.028052
763.98 0.045787
764.685 0.029077
765.39 0.026266
766.095 0.027374
766.8 0.004993
767.505 0.019830
768.211 0.037906
768.916 0.048264
769.621 0.008080
770.327 0.007772
771.033 0.017328
771.738 0.036549
772.444 0.031384
773.15 0.015069
773.856 0.013355
774.562 0.032056
775.268 0.010259
775.974 0.022546
776.68 0.045828
777.387 0.015407
778.093 0.004727
778.8 0.031200
779.506 0.023657
780.213 0.044264
780.92 0.045648
781.626 0.021400
782.333 0.007478
783.04 0.011497
783.747 0.027884
784.455 0.002342
785.162 0.041423
785.869 0.023862
786.577 0.031811
787.284 0.036790
787.992 0.011396
788.699 0.015989
789.407 0.020259
790.115 0.027910
790.823 0.030182
791.531 0.016553
792.239 0.005042
792.947 -0.022156
793.655 0.026711
794.363 0.046356
795.072 0.039264
795.78 0.013496
796.489 0.044153
797.197 0.009030
797.906 0.022296
798.615 0.009408
799.323 0.023273
800.032 0.061847
800.741 0.031296
801.45 0.076428
802.159 0.039311
802.869 -0.024724
803.578 0.045951
804.287 0.021936
804.997 -0.005186
805.706 0.002780
806.416 0.024046
807.126 0.027667
807.835 0.037478
808.545 0.029018
809.255 0.001808
809.965 0.002094
810.675 -0.004277
811.385 0.038932
812.096 0.000162
812.806 -0.000362
813.516 -0.032877
814.227 0.044297
814.937 0.010509
815.648 -0.040910
816.359 0.002198
817.069 -0.009654
817.78 -0.007676
818.491 -0.024029
819.202 0.027485
819.913 0.008084
820.624 0.047385
821.336 0.068074
822.047 0.063492
822.758 0.048545
823.47 0.058851
824.181 0.048352
824.893 0.022527
825.605 0.039715
826.317 0.035096
827.028 0.042638
827.74 0.038849
828.452 0.025472
829.164 -0.006083
829.876 0.011198
830.589 0.027465
831.301 0.058939
832.013 -0.011824
832.726 0.029903
833.438 0.030974
834.151 0.040165
834.864 0.060723
835.577 0.034533
836.289 0.098116
837.002 0.025135
837.715 -0.027793
838.428 -0.038615
839.141 0.043155
839.855 -0.009444
840.568 0.060046
841.281 0.057109
841.995 -0.056002
842.708 -0.051537
843.422 0.057835
844.135 0.074630
844.849 -0.009915
845.563 0.086644
846.277 -0.046193
846.991 -0.019218
847.705 -0.007276
848.419 0.090512
849.133 0.171098
849.847 0.016964
850.562 0.001808
851.276 -0.028227
851.991 -0.025047
852.705 -0.017388
853.42 -0.000377
854.135 0.007151
854.85 0.082354
855.564 0.011696
856.279 0.047888
856.994 0.000644
857.709 0.015972
858.424 -0.031561
859.14 0.067425
859.855 -0.008200
860.57 0.081904
861.286 -0.015964
862.001 -0.009032
862.717 -0.028399
863.433 0.002804
864.148 0.032522
864.864 0.049794
865.58 -0.068885
866.296 0.090356
867.012 0.065422
867.728 -0.016912
868.444 -0.014843
869.161 0.070210
869.877 0.009286
870.593 -0.026340
871.31 -0.000712
872.026 -0.009356
872.743 0.055802
873.46 0.138276
874.176 0.040001
874.893 0.087797
875.61 -0.003025
876.327 0.025084
877.044 0.003320
877.761 -0.017997
878.478 0.005635
879.196 0.104369
879.913 0.002944
880.63 0.092981
881.348 -0.010529
882.065 0.043730
882.783 0.056153
883.501 0.037894
884.218 0.010596
884.936 0.078275
885.654 0.003630
886.372 0.014708
887.09 0.050436
887.808 -0.002259
888.527 -0.062703
889.245 -0.045135
889.963 0.028252
890.682 0.002015
891.4 -0.043073
892.119 -0.000806
892.837 0.138374
893.556 0.038378
894.275 0.035480
894.994 0.097390
895.712 0.045046
896.431 -0.024424
897.15 -0.025136
897.87 -0.112635
898.589 0.085474
899.308 0.119842
900.027 -0.037642
900.747 0.012737
901.466 0.036235
902.186 0.073086
902.905 0.070033
903.625 0.053470
904.345 0.007967
905.064 0.123589
905.784 0.171788
906.504 0.009031
907.224 0.037855
907.944 -0.068924
908.664 -0.057976
909.385 -0.006714
910.105 0.033877
910.825 0.044220
911.546 0.113158
912.266 0.133252
912.987 0.018186
913.707 -0.033585
914.428 -0.038638
915.149 -0.102089
915.87 0.081550
916.591 -0.028846
917.312 -0.013778
918.033 0.064091
918.754 0.075908
919.475 -0.041243
920.196 -0.016791
920.918 0.174903
921.639 0.121478
922.361 0.082980
923.082 0.102146
923.804 0.042022
924.525 -0.003731
925.247 0.068454
925.969 -0.025842
926.691 0.384225
927.413 0.049256
928.135 0.134587
928.857 0.137412
929.579 0.184674
930.301 0.079692
931.023 0.044787
931.746 0.042072
932.468 0.149485
933.191 0.078831
933.913 -0.093469
934.636 0.020895
935.358 0.042418
936.081 0.156932
936.804 0.054347
937.527 -0.039811
938.25 0.442863
938.973 0.231738
939.696 -0.071241
940.419 0.063972
941.142 -0.340976
941.865 0.168885
942.589 0.299577
943.312 0.237766
944.036 0.100637
944.759 0.268770
945.483 0.696428
946.207 0.200075
946.93 0.663376
947.654 -0.047435
948.378 -0.316776
949.102 -0.052341
949.826 0.068200
950.55 -0.024674
951.274 -0.160383
951.998 0.168378
952.723 -0.205094
953.447 -0.235675
954.171 -1.295474
954.896 -0.319601
955.62 -0.394176
956.345 0.098167
957.07 0.145905
957.794 0.028677
958.519 -0.028008
959.244 0.016128
959.969 0.260543
960.694 -0.294705
961.419 -0.256878
962.144 -0.340238
962.869 -0.094916
963.594 0.106470
964.32 0.270756
965.045 0.117946
965.77 -0.014370
966.496 -0.302910
967.222 -0.188644
967.947 0.334694
968.673 3.067443
969.399 -0.101733
970.125 0.242749
970.85 -0.004212
971.576 -0.437838
972.302 0.195900
973.028 1.066947
973.755 0.025164
974.481 0.064117
975.207 0.606847
975.933 0.535635
976.66 0.237067
977.386 0.370326
978.113 -0.086026
978.839 0.315846
979.566 -0.215395
980.293 0.343958
981.019 0.010091
981.746 1.845098
982.473 0.278754
983.2 0.332327
983.927 -0.027084
984.654 0.667001
985.381 0.097230
986.109 -2.823474
986.836 0.655564
987.563 2.700704
988.291 -0.186030
989.018 3.115278
989.746 1.044670
990.473 2.935507
991.201 -0.104958
991.928 -2.939519
992.656 0.067196
993.384 3.021603
994.112 -0.157136
994.84 -2.608526
995.568 0.324889
996.296 2.128399
997.024 -0.849507
997.752 0.243593
998.481 0.314080
999.209 0.000000
999.937 2.318063
1000.67 0.249937
1001.39 0.732238
1002.12 0.440432
1002.85 1.080775
1003.58 -2.559907
1004.31 1.304358
1005.04 0.329338
1005.77 0.644024
1006.5 -0.130086
1007.22 0.640375
1007.95 0.044381
1008.68 2.691965
1009.41 -2.906335
1010.14 2.432969
1010.87 0.433656
1011.6 -0.680777
1012.33 0.572958
1013.06 -2.998259
1013.79 0.733478
1014.52 1.044695
1015.25 -0.051595
1015.98 -0.363998
1016.71 -0.984600
1017.44 -0.046233
1018.17 0.181345
1018.9 0.014282
1019.63 0.313362
1020.36 0.592917
1021.09 0.351119
1021.82 0.000000
1022.55 2.902003
1023.03 2.812913