File: Auto_Polymerization/Data/UV_VIS_Spectra/MRG-061-F-3_pure_compounds_spectra_test/DMSO+MMA_spectrum_average_referenced_to_DMSO.txt
# Wavelength	Intensity diff (sample - DMSO)
197.78 0.000211
198.392 -0.000210
199.004 -0.000432
199.617 -0.000591
200.229 0.000873
200.842 -0.000844
201.455 -0.000548
202.067 -0.000375
202.68 -0.000352
203.294 -0.000257
203.907 -0.000341
204.52 -0.000540
205.134 -0.000886
205.748 -0.000168
206.361 0.001102
206.975 0.000236
207.589 0.000566
208.204 -0.001683
208.818 0.000486
209.433 -0.000707
210.047 0.000324
210.662 -0.000703
211.277 -0.000391
211.892 -0.000299
212.507 -0.000900
213.122 -0.000021
213.738 -0.000161
214.353 0.000376
214.969 -0.000320
215.585 -0.000664
216.201 0.000193
216.817 -0.000974
217.433 0.000187
218.049 0.000833
218.666 0.000140
219.282 -0.000735
219.899 -0.001047
220.516 0.000925
221.133 -0.000260
221.75 -0.001340
222.368 -0.000499
222.985 0.001354
223.603 -0.000123
224.22 -0.000978
224.838 0.000232
225.456 0.000383
226.074 0.000292
226.692 0.001044
227.311 -0.000460
227.929 -0.001850
228.548 -0.001019
229.167 0.000739
229.786 0.000074
230.405 -0.000152
231.024 -0.000563
231.643 -0.000379
232.262 -0.001263
232.882 0.000337
233.501 -0.000436
234.121 0.000418
234.741 -0.001467
235.361 -0.000978
235.982 0.000574
236.602 0.000210
237.222 -0.000141
237.843 -0.000025
238.464 0.000366
239.084 0.000155
239.706 0.000682
240.327 0.000446
240.948 -0.000553
241.569 -0.000334
242.191 -0.000790
242.812 -0.001108
243.434 -0.000049
244.056 0.000390
244.678 -0.000298
245.3 -0.000520
245.923 -0.000327
246.545 -0.000295
247.167 -0.001217
247.79 0.000454
248.413 0.000179
249.036 -0.000697
249.659 -0.001301
250.282 -0.000088
250.906 0.000356
251.529 0.000134
252.153 -0.001150
252.776 0.000182
253.4 -0.000400
254.024 -0.000538
254.648 -0.000078
255.273 -0.000609
255.897 -0.000182
256.521 -0.000148
257.146 -0.000028
257.771 0.000608
258.396 -0.000876
259.021 -0.000735
259.646 -0.000661
260.271 -0.000696
260.897 -0.001090
261.522 -0.001442
262.148 -0.000544
262.774 -0.001107
263.399 -0.000523
264.026 -0.000843
264.652 -0.000355
265.278 -0.001312
265.904 -0.000397
266.531 -0.000602
267.158 -0.000046
267.784 0.000486
268.411 -0.000274
269.038 0.000623
269.666 -0.000590
270.293 0.000468
270.921 -0.000235
271.548 -0.000179
272.176 -0.001448
272.804 -0.000830
273.432 -0.000826
274.06 -0.001006
274.688 -0.001417
275.316 -0.000387
275.945 -0.000273
276.573 -0.000709
277.202 0.000119
277.831 -0.000973
278.46 0.000098
279.089 0.000039
279.718 -0.000780
280.348 -0.000010
280.977 0.000117
281.607 0.001151
282.237 -0.000090
282.866 -0.000672
283.497 -0.000844
284.127 0.000742
284.757 -0.000664
285.387 0.000549
286.018 -0.001501
286.648 -0.001044
287.279 -0.000292
287.91 -0.000028
288.541 -0.002040
289.172 0.001023
289.803 0.001410
290.435 0.001434
291.067 -0.000812
291.698 0.000394
292.33 -0.000186
292.962 0.001478
293.594 -0.000035
294.226 0.000418
294.858 0.000018
295.491 -0.000348
296.123 -0.000380
296.756 -0.000977
297.389 -0.001033
298.022 -0.000211
298.654 -0.001114
299.288 0.000675
299.921 -0.001354
300.554 -0.000627
301.188 -0.000235
301.822 -0.001433
302.455 -0.001185
303.089 0.000345
303.723 -0.000555
304.357 0.000464
304.992 0.000379
305.626 0.000820
306.261 -0.001199
306.895 0.000760
307.53 0.000025
308.165 0.000595
308.8 0.000554
309.435 -0.000053
310.07 -0.000463
310.706 -0.000703
311.341 -0.001258
311.977 -0.000872
312.613 0.000057
313.249 -0.001554
313.885 -0.000190
314.521 0.000313
315.157 0.000026
315.793 0.001003
316.43 -0.002222
317.067 -0.002116
317.703 -0.001322
318.34 0.000257
318.977 -0.000386
319.614 0.000335
320.252 -0.000200
320.889 0.001097
321.526 -0.001518
322.164 0.000862
322.802 -0.000006
323.44 -0.000209
324.078 0.000131
324.716 0.000585
325.354 -0.001961
325.992 0.001098
326.631 -0.000689
327.269 0.000367
327.908 -0.000421
328.547 -0.002246
329.186 -0.000139
329.825 -0.000189
330.464 -0.001483
331.104 -0.000579
331.743 0.000085
332.383 -0.000072
333.022 -0.000048
333.662 -0.000576
334.302 -0.001151
334.942 0.000354
335.582 0.000547
336.223 -0.000856
336.863 0.000001
337.504 -0.000047
338.144 -0.001521
338.785 0.000511
339.426 -0.000480
340.067 -0.000726
340.708 0.000923
341.349 0.000625
341.991 -0.001176
342.632 -0.001144
343.274 -0.000160
343.916 0.000041
344.558 -0.000647
345.2 -0.000208
345.842 -0.001045
346.484 -0.001675
347.126 -0.001101
347.769 0.000214
348.411 0.000893
349.054 -0.001003
349.697 0.000377
350.34 -0.000588
350.983 0.001118
351.626 -0.000801
352.27 -0.000622
352.913 0.001354
353.557 -0.001195
354.2 0.000035
354.844 -0.000601
355.488 -0.000331
356.132 -0.001483
356.776 -0.000362
357.421 0.000528
358.065 0.000247
358.709 -0.000323
359.354 0.000373
359.999 0.000834
360.644 0.000795
361.289 -0.000992
361.934 -0.000183
362.579 -0.001586
363.224 -0.000218
363.87 0.000525
364.515 -0.000811
365.161 -0.000270
365.807 0.000982
366.453 -0.001712
367.099 0.000624
367.745 0.000058
368.392 -0.000428
369.038 -0.000523
369.685 -0.000367
370.331 0.001756
370.978 0.000349
371.625 -0.000420
372.272 0.000479
372.919 0.001522
373.566 -0.000690
374.214 0.000442
374.861 0.000336
375.509 0.001006
376.156 0.000456
376.804 0.000112
377.452 -0.000686
378.1 0.001150
378.748 -0.000829
379.397 -0.000093
380.045 0.001045
380.694 0.002251
381.342 -0.000776
381.991 0.001412
382.64 -0.000554
383.289 -0.000954
383.938 0.000423
384.587 0.000638
385.237 0.000396
385.886 0.000775
386.536 -0.000065
387.186 0.001772
387.836 0.001164
388.485 0.000885
389.135 -0.001109
389.786 -0.000106
390.436 -0.001073
391.086 -0.000626
391.737 0.001100
392.387 0.001298
393.038 0.001135
393.689 0.000082
394.34 0.001398
394.991 0.001503
395.642 0.000965
396.294 0.001324
396.945 -0.000389
397.597 0.002232
398.248 0.000507
398.9 0.001587
399.552 0.000503
400.204 0.000910
400.856 0.000854
401.509 0.001554
402.161 0.000984
402.813 0.001458
403.466 0.000893
404.119 0.001659
404.772 0.000616
405.425 0.001446
406.078 0.001646
406.731 0.002560
407.384 0.000868
408.038 0.000057
408.691 0.000275
409.345 0.000552
409.998 0.000823
410.652 0.000646
411.306 0.000600
411.961 0.000200
412.615 0.001158
413.269 0.001118
413.923 0.001340
414.578 0.000830
415.233 0.001484
415.887 -0.000837
416.542 0.000665
417.197 0.001998
417.852 0.000471
418.508 0.001955
419.163 0.002962
419.818 0.000781
420.474 -0.000533
421.13 -0.000036
421.786 0.000901
422.442 0.000433
423.098 0.002689
423.754 0.002324
424.41 0.000927
425.066 0.000903
425.723 0.001950
426.379 0.000715
427.036 0.000680
427.693 -0.000753
428.35 -0.000122
429.007 0.000882
429.664 0.002259
430.321 0.000934
430.979 -0.000151
431.636 0.002064
432.294 0.001078
432.952 0.000733
433.609 -0.001860
434.267 0.001080
434.925 -0.001720
435.584 0.001164
436.242 0.001121
436.9 0.000775
437.559 0.000618
438.217 0.001997
438.876 0.002521
439.535 0.002036
440.194 0.000229
440.853 -0.000305
441.512 -0.000947
442.171 0.000557
442.831 0.001430
443.49 0.004199
444.15 0.000518
444.81 0.000497
445.469 0.000179
446.129 -0.000081
446.789 0.000707
447.45 0.001305
448.11 0.003252
448.77 0.002043
449.431 0.000692
450.091 0.001751
450.752 0.001081
451.413 -0.000800
452.074 0.000146
452.735 0.003061
453.396 0.000160
454.057 0.002090
454.719 0.001733
455.38 0.002340
456.042 0.001564
456.704 0.003054
457.365 0.002101
458.027 0.000738
458.689 0.001986
459.352 0.002822
460.014 0.001821
460.676 0.002759
461.339 0.000991
462.001 0.001650
462.664 0.001836
463.327 -0.000065
463.99 0.000087
464.653 0.000803
465.316 0.001623
465.979 0.001074
466.642 0.000735
467.306 0.001880
467.97 -0.000290
468.633 0.000943
469.297 0.001463
469.961 0.004951
470.625 0.001071
471.289 -0.000589
471.953 0.002960
472.618 -0.001143
473.282 -0.000400
473.947 0.000044
474.611 -0.000041
475.276 0.000635
475.941 0.001781
476.606 0.002719
477.271 0.001509
477.936 -0.000856
478.602 0.000681
479.267 0.002185
479.933 0.002323
480.598 -0.000872
481.264 0.001026
481.93 0.000696
482.596 0.002088
483.262 0.000414
483.928 0.001913
484.594 0.000296
485.261 0.001184
485.927 -0.013063
486.594 0.013408
487.26 0.005675
487.927 0.003088
488.594 0.002072
489.261 -0.000052
489.928 0.001194
490.596 0.001768
491.263 0.002560
491.93 -0.000574
492.598 0.000656
493.266 -0.000170
493.933 -0.000865
494.601 0.000348
495.269 0.001406
495.937 0.001044
496.606 -0.000002
497.274 0.000145
497.942 0.000357
498.611 0.001750
499.279 0.000980
499.948 0.001569
500.617 0.001399
501.286 -0.001759
501.955 0.002617
502.624 0.001078
503.293 0.001503
503.963 0.002641
504.632 0.000998
505.302 0.000510
505.972 0.001971
506.641 0.001618
507.311 0.002819
507.981 0.000069
508.651 0.002731
509.322 0.002645
509.992 0.000038
510.662 0.001215
511.333 -0.000687
512.004 -0.000143
512.674 0.000388
513.345 0.002012
514.016 0.001164
514.687 0.002353
515.358 -0.000641
516.029 -0.001552
516.701 0.000291
517.372 0.001023
518.044 -0.001155
518.716 0.001148
519.387 -0.001312
520.059 0.000621
520.731 0.000679
521.403 0.000687
522.076 0.000695
522.748 0.002371
523.42 0.000585
524.093 0.001048
524.765 0.001763
525.438 0.000188
526.111 0.001049
526.784 0.000348
527.457 0.000874
528.13 0.000155
528.803 0.002083
529.476 -0.000653
530.15 0.001432
530.823 -0.001904
531.497 0.000423
532.171 0.002318
532.845 -0.000107
533.519 0.001847
534.193 0.001396
534.867 0.001290
535.541 0.001304
536.216 0.002243
536.89 0.001408
537.564 -0.001426
538.239 0.001055
538.914 0.001815
539.589 0.001725
540.264 0.002163
540.939 0.002100
541.614 0.001204
542.289 -0.000529
542.965 0.000055
543.64 0.000340
544.316 0.000857
544.991 0.000745
545.667 0.000439
546.343 -0.000977
547.019 0.000451
547.695 0.000597
548.371 0.000096
549.048 0.001533
549.724 0.000048
550.401 0.005009
551.077 0.001056
551.754 -0.001684
552.431 0.000261
553.108 -0.000672
553.785 0.000247
554.462 -0.000280
555.139 0.001827
555.816 0.002799
556.494 0.000770
557.171 0.001345
557.849 0.002088
558.527 0.002373
559.204 0.001471
559.882 0.001076
560.56 0.000068
561.238 0.002901
561.917 0.000894
562.595 0.000651
563.273 0.000426
563.952 0.001665
564.63 -0.000381
565.309 0.001695
565.988 0.002032
566.667 0.002684
567.346 0.000177
568.025 0.003478
568.704 0.001313
569.384 0.002831
570.063 0.003410
570.742 0.006286
571.422 0.004284
572.102 0.003070
572.782 0.005509
573.462 -0.002597
574.141 0.001081
574.822 0.004737
575.502 0.002886
576.182 -0.001318
576.863 0.000631
577.543 -0.002489
578.224 0.007476
578.904 0.009991
579.585 0.001185
580.266 0.004276
580.947 0.006079
581.628 -0.001731
582.309 0.013130
582.991 0.017291
583.672 0.008601
584.354 0.003359
585.035 -0.003781
585.717 0.009229
586.399 0.009960
587.08 0.003661
587.762 0.007215
588.444 0.006705
589.127 0.011877
589.809 0.004643
590.491 0.005819
591.174 0.004499
591.856 0.003074
592.539 -0.004438
593.222 -0.000901
593.905 0.003010
594.587 0.003921
595.27 -0.000338
595.954 0.005664
596.637 0.001871
597.32 -0.001370
598.004 0.001721
598.687 -0.006588
599.371 -0.000821
600.055 -0.001358
600.738 0.004602
601.422 0.007882
602.106 0.001899
602.79 -0.001584
603.475 -0.000242
604.159 0.000850
604.843 0.003125
605.528 0.001185
606.212 0.007726
606.897 0.004688
607.582 0.002295
608.267 0.006600
608.952 0.003059
609.637 0.003335
610.322 0.000501
611.007 0.002009
611.693 0.001632
612.378 -0.000313
613.064 0.001224
613.749 0.002546
614.435 0.001146
615.121 0.002721
615.807 0.001482
616.493 0.002692
617.179 -0.000237
617.865 -0.000139
618.552 0.005315
619.238 0.000582
619.924 0.000660
620.611 0.003344
621.298 0.002999
621.985 -0.001121
622.671 0.000689
623.358 -0.000811
624.045 0.001794
624.733 0.004391
625.42 0.004430
626.107 0.003361
626.795 0.000967
627.482 0.002481
628.17 0.003571
628.858 0.002242
629.545 0.001167
630.233 0.000837
630.921 0.001454
631.609 -0.000591
632.298 0.001157
632.986 0.002170
633.674 -0.000805
634.363 0.002905
635.051 -0.000666
635.74 -0.000459
636.429 0.000339
637.118 0.001402
637.807 -0.000328
638.496 -0.000054
639.185 0.001851
639.874 0.001533
640.563 0.002708
641.253 0.000877
641.942 0.001257
642.632 0.001826
643.322 -0.000086
644.011 0.000934
644.701 0.001643
645.391 0.000048
646.081 0.002152
646.771 0.002154
647.462 -0.001601
648.152 0.000139
648.842 -0.000107
649.533 0.000064
650.224 0.000033
650.914 0.001169
651.605 0.000092
652.296 0.000890
652.987 0.001156
653.678 0.000902
654.369 -0.001810
655.061 -0.010977
655.752 -0.184948
656.443 -0.003363
657.135 0.015515
657.826 0.013294
658.518 0.009228
659.21 0.013180
659.902 0.021629
660.594 0.001619
661.286 -0.000410
661.978 0.001254
662.67 -0.001739
663.363 0.000887
664.055 0.000995
664.748 -0.000974
665.44 -0.001699
666.133 0.000464
666.826 -0.000023
667.519 0.000019
668.212 0.000741
668.905 -0.000593
669.598 0.001935
670.291 -0.000951
670.985 0.000973
671.678 -0.000888
672.372 0.000815
673.065 0.001947
673.759 0.001967
674.453 0.001013
675.147 -0.000861
675.841 -0.000467
676.535 0.001557
677.229 0.000945
677.923 0.000155
678.617 0.000329
679.312 -0.000906
680.006 -0.001821
680.701 -0.000105
681.396 -0.000834
682.091 -0.000124
682.785 0.000934
683.48 0.000164
684.175 -0.000275
684.87 -0.001693
685.566 -0.001565
686.261 -0.002345
686.957 0.001170
687.652 0.000303
688.348 0.000501
689.043 0.000218
689.739 0.000609
690.435 0.000436
691.131 -0.001842
691.827 -0.000586
692.523 -0.000090
693.219 -0.000498
693.915 0.001541
694.612 -0.000402
695.308 -0.001124
696.005 -0.001237
696.702 -0.001833
697.398 -0.001404
698.095 -0.002781
698.792 0.001221
699.489 0.000335
700.186 0.000797
700.883 0.000393
701.581 0.000220
702.278 -0.001424
702.975 0.000718
703.673 -0.000680
704.37 -0.000094
705.068 0.002488
705.766 -0.000392
706.464 -0.002081
707.162 0.001825
707.86 -0.001950
708.558 0.000149
709.256 0.000804
709.955 0.001512
710.653 0.001402
711.351 0.002304
712.05 0.000933
712.749 -0.000048
713.447 0.001082
714.146 0.000611
714.845 -0.000729
715.544 0.001080
716.243 0.003367
716.942 0.000479
717.642 0.001499
718.341 -0.000491
719.04 -0.000860
719.74 0.000890
720.439 -0.000643
721.139 0.001239
721.839 0.000058
722.539 -0.000351
723.239 0.000672
723.939 0.001474
724.639 -0.003037
725.339 -0.001567
726.039 -0.000018
726.74 -0.000071
727.44 -0.000844
728.141 0.000308
728.841 0.001434
729.542 -0.000798
730.243 0.001261
730.944 -0.003531
731.645 -0.001783
732.346 0.000470
733.047 -0.000061
733.748 -0.002145
734.449 -0.001044
735.151 0.001310
735.852 -0.001592
736.554 -0.001865
737.256 -0.000121
737.957 0.002562
738.659 0.000347
739.361 -0.001227
740.063 0.001354
740.765 0.000437
741.467 -0.000291
742.169 0.000432
742.872 0.001618
743.574 0.001503
744.277 0.000307
744.979 -0.000657
745.682 0.000697
746.385 -0.000005
747.087 -0.000228
747.79 0.000129
748.493 0.000353
749.196 -0.000026
749.899 0.000190
750.603 -0.000073
751.306 0.000040
752.01 0.000079
752.713 0.000036
753.417 0.000332
754.12 -0.000107
754.824 0.000424
755.528 -0.000004
756.232 -0.000119
756.936 -0.000019
757.64 -0.001074
758.344 0.001195
759.048 -0.000145
759.752 -0.001035
760.457 0.000434
761.161 -0.001012
761.866 -0.002988
762.571 0.000825
763.275 -0.000644
763.98 -0.001864
764.685 -0.001074
765.39 -0.000986
766.095 0.001940
766.8 0.000643
767.505 0.000366
768.211 -0.001932
768.916 -0.002435
769.621 0.000950
770.327 0.001185
771.033 -0.000713
771.738 -0.001124
772.444 -0.001284
773.15 0.002252
773.856 -0.000397
774.562 0.001051
775.268 0.002360
775.974 0.000142
776.68 -0.000748
777.387 0.000174
778.093 0.000132
778.8 0.000081
779.506 0.000315
780.213 0.000655
780.92 -0.001309
781.626 -0.000696
782.333 -0.000102
783.04 0.000053
783.747 -0.000239
784.455 0.000505
785.162 -0.000825
785.869 -0.000003
786.577 0.001038
787.284 -0.000530
787.992 0.000396
788.699 0.000226
789.407 0.000086
790.115 -0.000868
790.823 -0.000671
791.531 0.000319
792.239 0.000040
792.947 0.001875
793.655 -0.000972
794.363 -0.001349
795.072 -0.001267
795.78 -0.000438
796.489 -0.000148
797.197 -0.000455
797.906 -0.000964
798.615 0.000241
799.323 0.000927
800.032 -0.001159
800.741 0.000598
801.45 -0.000920
802.159 -0.000117
802.869 0.001512
803.578 -0.000467
804.287 -0.000306
804.997 0.000918
805.706 0.000738
806.416 -0.000663
807.126 -0.000032
807.835 0.000178
808.545 -0.000208
809.255 0.000558
809.965 -0.001283
810.675 0.001196
811.385 -0.000520
812.096 0.000523
812.806 0.000056
813.516 0.001093
814.227 -0.001139
814.937 0.000696
815.648 0.001866
816.359 -0.000393
817.069 -0.000452
817.78 0.001316
818.491 0.000864
819.202 0.000332
819.913 0.000466
820.624 -0.001697
821.336 -0.001724
822.047 -0.001137
822.758 0.000093
823.47 -0.000600
824.181 -0.002187
824.893 -0.000013
825.605 -0.000801
826.317 0.000652
827.028 -0.001060
827.74 -0.000592
828.452 -0.000297
829.164 0.000881
829.876 0.000627
830.589 0.001043
831.301 -0.001136
832.013 -0.000012
832.726 -0.000639
833.438 -0.000186
834.151 -0.000730
834.864 -0.000724
835.577 0.001031
836.289 -0.001296
837.002 -0.000954
837.715 0.001332
838.428 0.000523
839.141 -0.001224
839.855 -0.000008
840.568 -0.001482
841.281 0.000196
841.995 0.001283
842.708 0.000340
843.422 -0.000705
844.135 -0.001159
844.849 0.000087
845.563 -0.000940
846.277 0.000691
846.991 -0.000420
847.705 0.001026
848.419 -0.000810
849.133 -0.000501
849.847 -0.000452
850.562 -0.000723
851.276 0.001204
851.991 0.000343
852.705 -0.000405
853.42 0.000836
854.135 -0.000937
854.85 -0.001397
855.564 -0.000847
856.279 -0.000642
856.994 0.000222
857.709 0.000834
858.424 0.000756
859.14 -0.000578
859.855 -0.000370
860.57 -0.001154
861.286 0.000249
862.001 -0.001087
862.717 0.000034
863.433 -0.000214
864.148 0.000878
864.864 0.000052
865.58 -0.000118
866.296 -0.000230
867.012 -0.000131
867.728 0.000547
868.444 -0.001063
869.161 0.000269
869.877 0.000467
870.593 0.001218
871.31 0.000333
872.026 0.000498
872.743 -0.000462
873.46 -0.000596
874.176 0.000178
874.893 -0.001046
875.61 -0.001703
876.327 0.000020
877.044 0.000167
877.761 0.000056
878.478 -0.000184
879.196 -0.002201
879.913 -0.000377
880.63 -0.001551
881.348 0.000285
882.065 -0.001235
882.783 -0.000675
883.501 0.000460
884.218 0.001251
884.936 -0.000591
885.654 0.000041
886.372 -0.000190
887.09 -0.000980
887.808 -0.000490
888.527 -0.000016
889.245 -0.001173
889.963 0.000505
890.682 -0.000043
891.4 -0.000599
892.119 -0.000116
892.837 -0.000990
893.556 -0.000113
894.275 -0.000601
894.994 -0.000512
895.712 -0.000374
896.431 -0.000343
897.15 0.000008
897.87 0.000346
898.589 -0.000526
899.308 -0.000410
900.027 0.000866
900.747 -0.000076
901.466 -0.000315
902.186 -0.000484
902.905 0.000177
903.625 -0.001293
904.345 -0.000238
905.064 -0.000243
905.784 -0.001038
906.504 -0.000943
907.224 -0.000740
907.944 -0.000382
908.664 0.000449
909.385 0.000108
910.105 0.000061
910.825 -0.000421
911.546 0.000139
912.266 -0.000878
912.987 0.000473
913.707 0.000747
914.428 -0.000108
915.149 0.000050
915.87 -0.000695
916.591 0.000571
917.312 -0.000452
918.033 -0.000754
918.754 -0.000768
919.475 -0.000607
920.196 0.000434
920.918 0.000216
921.639 -0.001162
922.361 -0.000079
923.082 0.000526
923.804 -0.001557
924.525 -0.000565
925.247 -0.000253
925.969 0.000269
926.691 -0.002097
927.413 0.000110
928.135 -0.000800
928.857 -0.000340
929.579 0.000677
930.301 -0.001188
931.023 -0.000604
931.746 -0.001008
932.468 -0.001448
933.191 -0.000862
933.913 -0.000572
934.636 0.000957
935.358 -0.000843
936.081 -0.000636
936.804 -0.001086
937.527 0.000240
938.25 -0.000576
938.973 -0.001958
939.696 -0.000010
940.419 0.000404
941.142 0.000611
941.865 -0.000667
942.589 -0.000731
943.312 -0.001395
944.036 -0.001237
944.759 -0.000955
945.483 -0.001167
946.207 0.000056
946.93 0.000559
947.654 0.000824
948.378 0.000295
949.102 0.000177
949.826 -0.000545
950.55 -0.000777
951.274 -0.000187
951.998 -0.000608
952.723 0.000345
953.447 -0.000263
954.171 0.001211
954.896 0.000001
955.62 -0.000552
956.345 -0.000463
957.07 -0.000678
957.794 0.000799
958.519 -0.000594
959.244 -0.001100
959.969 -0.000045
960.694 0.000411
961.419 0.000208
962.144 0.000306
962.869 0.000408
963.594 -0.001097
964.32 -0.000798
965.045 0.000605
965.77 -0.000584
966.496 0.000436
967.222 0.000081
967.947 0.000257
968.673 -0.001172
969.399 0.000024
970.125 0.000007
970.85 0.000201
971.576 0.000605
972.302 -0.001163
973.028 -0.000678
973.755 -0.000896
974.481 0.000506
975.207 -0.000239
975.933 -0.000105
976.66 -0.000967
977.386 0.000650
978.113 -0.000046
978.839 -0.001754
979.566 0.000457
980.293 -0.000278
981.019 0.000465
981.746 0.000588
982.473 -0.000774
983.2 -0.000602
983.927 -0.000640
984.654 -0.001100
985.381 -0.000453
986.109 0.000950
986.836 -0.000668
987.563 -0.000822
988.291 0.000567
989.018 -0.000358
989.746 -0.000087
990.473 -0.000696
991.201 -0.000264
991.928 0.000170
992.656 -0.001483
993.384 -0.001026
994.112 -0.000538
994.84 0.001431
995.568 -0.001439
996.296 -0.001239
997.024 0.000743
997.752 -0.000007
998.481 -0.000113
999.209 0.000218
999.937 -0.000120
1000.67 -0.000039
1001.39 -0.000271
1002.12 -0.000491
1002.85 -0.001132
1003.58 -0.000271
1004.31 -0.000246
1005.04 -0.000464
1005.77 -0.000021
1006.5 -0.000583
1007.22 -0.000672
1007.95 -0.001601
1008.68 -0.000200
1009.41 0.000710
1010.14 0.000169
1010.87 -0.000482
1011.6 -0.000099
1012.33 -0.000664
1013.06 0.000207
1013.79 -0.001132
1014.52 -0.001660
1015.25 -0.001361
1015.98 -0.000623
1016.71 -0.000644
1017.44 0.000230
1018.17 -0.001884
1018.9 -0.001343
1019.63 0.000060
1020.36 -0.000204
1021.09 -0.001863
1021.82 -0.000176
1022.55 -0.001329
1023.03 -0.000633