File: Auto_Polymerization/Data/UV_VIS_Spectra/MRG-061-F-3_pure_compounds_spectra_test/DMSO+AIBN_spectrum_average_referenced_to_DMSO.txt
# Wavelength	Intensity diff (sample - DMSO)
197.78 0.000117
198.392 0.000273
199.004 -0.000237
199.617 -0.000319
200.229 0.000125
200.842 -0.000473
201.455 -0.000720
202.067 -0.000716
202.68 -0.000024
203.294 -0.000133
203.907 0.000430
204.52 -0.001000
205.134 -0.000269
205.748 -0.000888
206.361 0.001338
206.975 -0.000449
207.589 0.000360
208.204 -0.000793
208.818 0.000152
209.433 -0.000660
210.047 0.000751
210.662 -0.001353
211.277 0.000655
211.892 -0.000399
212.507 -0.001149
213.122 -0.000579
213.738 0.000039
214.353 0.000465
214.969 -0.000217
215.585 -0.000505
216.201 0.000479
216.817 -0.000048
217.433 0.000213
218.049 0.000416
218.666 -0.000193
219.282 -0.001005
219.899 -0.001113
220.516 0.000697
221.133 0.000033
221.75 -0.000793
222.368 -0.000762
222.985 0.001506
223.603 -0.000034
224.22 -0.000235
224.838 0.000307
225.456 -0.000906
226.074 0.000740
226.692 0.000240
227.311 -0.000329
227.929 -0.000853
228.548 -0.000551
229.167 0.000413
229.786 -0.000379
230.405 0.000155
231.024 0.000082
231.643 -0.000431
232.262 -0.001202
232.882 -0.000552
233.501 -0.000255
234.121 0.000810
234.741 -0.000344
235.361 -0.000804
235.982 -0.000301
236.602 -0.000228
237.222 -0.000755
237.843 -0.000203
238.464 -0.000164
239.084 0.000244
239.706 0.000708
240.327 -0.000034
240.948 -0.000344
241.569 -0.000301
242.191 -0.000371
242.812 0.000029
243.434 -0.000312
244.056 0.000409
244.678 -0.000800
245.3 0.000012
245.923 -0.000576
246.545 0.000779
247.167 -0.001676
247.79 0.000247
248.413 -0.000098
249.036 -0.000756
249.659 -0.001051
250.282 -0.001300
250.906 0.000649
251.529 -0.000101
252.153 -0.001314
252.776 0.000483
253.4 -0.000227
254.024 0.000514
254.648 0.000010
255.273 -0.001012
255.897 -0.000164
256.521 -0.000607
257.146 0.000441
257.771 0.000880
258.396 0.000303
259.021 -0.000878
259.646 -0.000537
260.271 -0.000156
260.897 -0.001761
261.522 -0.000868
262.148 0.000628
262.774 -0.000532
263.399 -0.000702
264.026 -0.000002
264.652 -0.000878
265.278 -0.001258
265.904 0.000416
266.531 0.000367
267.158 -0.000365
267.784 0.000223
268.411 -0.000600
269.038 0.000213
269.666 0.000358
270.293 0.000620
270.921 0.000254
271.548 -0.000371
272.176 -0.000987
272.804 -0.001240
273.432 -0.000491
274.06 -0.000481
274.688 -0.001483
275.316 -0.000952
275.945 0.000012
276.573 -0.000395
277.202 -0.001079
277.831 -0.001215
278.46 -0.000059
279.089 -0.000413
279.718 -0.001324
280.348 0.000099
280.977 -0.000273
281.607 0.000452
282.237 0.000026
282.866 -0.000055
283.497 -0.000629
284.127 0.000529
284.757 -0.000462
285.387 0.001074
286.018 -0.000786
286.648 -0.000196
287.279 0.000226
287.91 -0.000396
288.541 -0.002429
289.172 0.000774
289.803 0.001098
290.435 0.001158
291.067 -0.000857
291.698 0.000385
292.33 -0.000786
292.962 0.001587
293.594 0.000159
294.226 0.000458
294.858 -0.000659
295.491 0.000262
296.123 -0.000833
296.756 -0.000262
297.389 -0.000804
298.022 -0.001233
298.654 -0.000758
299.288 0.000433
299.921 -0.000934
300.554 0.000243
301.188 -0.000455
301.822 -0.001344
302.455 -0.000512
303.089 0.000322
303.723 0.000631
304.357 -0.000214
304.992 0.000124
305.626 -0.000013
306.261 -0.000498
306.895 0.000124
307.53 -0.001223
308.165 0.000185
308.8 -0.000652
309.435 -0.000246
310.07 0.000019
310.706 -0.001613
311.341 -0.000466
311.977 -0.000558
312.613 0.000138
313.249 -0.001999
313.885 -0.000017
314.521 0.000093
315.157 -0.000961
315.793 0.000360
316.43 -0.001838
317.067 -0.001950
317.703 -0.001155
318.34 -0.001215
318.977 -0.001451
319.614 -0.000365
320.252 -0.000821
320.889 0.000553
321.526 -0.001591
322.164 -0.000315
322.802 -0.000368
323.44 -0.000972
324.078 -0.001926
324.716 -0.001416
325.354 -0.001949
325.992 -0.000501
326.631 -0.001732
327.269 -0.001183
327.908 -0.000382
328.547 -0.003185
329.186 -0.000515
329.825 -0.001001
330.464 -0.002034
331.104 -0.001792
331.743 -0.001345
332.383 -0.002058
333.022 -0.001858
333.662 -0.002576
334.302 -0.003398
334.942 -0.001611
335.582 -0.002207
336.223 -0.002420
336.863 -0.001929
337.504 -0.001035
338.144 -0.003064
338.785 -0.002566
339.426 -0.002326
340.067 -0.002938
340.708 -0.002941
341.349 -0.003423
341.991 -0.003486
342.632 -0.004481
343.274 -0.003406
343.916 -0.003212
344.558 -0.005054
345.2 -0.003236
345.842 -0.003757
346.484 -0.004752
347.126 -0.004227
347.769 -0.004897
348.411 -0.002845
349.054 -0.005157
349.697 -0.004058
350.34 -0.004390
350.983 -0.004118
351.626 -0.005573
352.27 -0.005387
352.913 -0.003819
353.557 -0.006059
354.2 -0.004146
354.844 -0.005064
355.488 -0.004829
356.132 -0.005735
356.776 -0.004853
357.421 -0.004393
358.065 -0.005082
358.709 -0.004969
359.354 -0.004280
359.999 -0.002624
360.644 -0.004357
361.289 -0.005124
361.934 -0.004505
362.579 -0.005543
363.224 -0.004302
363.87 -0.004389
364.515 -0.005415
365.161 -0.004079
365.807 -0.004860
366.453 -0.005915
367.099 -0.004564
367.745 -0.004405
368.392 -0.005532
369.038 -0.006471
369.685 -0.006125
370.331 -0.003418
370.978 -0.005585
371.625 -0.005742
372.272 -0.003724
372.919 -0.003829
373.566 -0.004444
374.214 -0.003467
374.861 -0.004002
375.509 -0.004134
376.156 -0.005021
376.804 -0.004866
377.452 -0.005066
378.1 -0.003786
378.748 -0.005708
379.397 -0.004692
380.045 -0.004517
380.694 -0.002770
381.342 -0.005009
381.991 -0.003855
382.64 -0.004062
383.289 -0.004133
383.938 -0.002734
384.587 -0.004017
385.237 -0.004014
385.886 -0.003325
386.536 -0.003609
387.186 -0.000310
387.836 -0.002529
388.485 -0.002322
389.135 -0.004035
389.786 -0.003222
390.436 -0.003717
391.086 -0.002461
391.737 -0.002881
392.387 -0.002669
393.038 -0.002081
393.689 -0.002127
394.34 -0.002387
394.991 -0.000397
395.642 -0.002538
396.294 -0.002061
396.945 -0.003984
397.597 -0.002264
398.248 -0.001225
398.9 -0.002924
399.552 -0.001715
400.204 -0.000499
400.856 -0.002102
401.509 -0.001592
402.161 -0.000037
402.813 0.000929
403.466 -0.000494
404.119 -0.000130
404.772 -0.001686
405.425 -0.002003
406.078 -0.002464
406.731 -0.000122
407.384 -0.000674
408.038 -0.002287
408.691 -0.001464
409.345 -0.000125
409.998 -0.002063
410.652 0.000489
411.306 0.000050
411.961 0.000149
412.615 0.000276
413.269 0.000547
413.923 -0.001060
414.578 -0.000481
415.233 0.001468
415.887 -0.001492
416.542 -0.000547
417.197 0.000329
417.852 -0.000895
418.508 -0.000347
419.163 0.000870
419.818 -0.000951
420.474 -0.000486
421.13 -0.000687
421.786 -0.002029
422.442 -0.002011
423.098 -0.000458
423.754 -0.000669
424.41 0.000340
425.066 -0.000999
425.723 0.000379
426.379 -0.000279
427.036 -0.000863
427.693 -0.001790
428.35 -0.000969
429.007 -0.001035
429.664 0.000785
430.321 -0.000716
430.979 -0.002413
431.636 -0.000591
432.294 -0.000057
432.952 -0.001583
433.609 -0.002398
434.267 -0.002370
434.925 -0.001835
435.584 -0.000472
436.242 -0.000916
436.9 -0.001178
437.559 0.000502
438.217 0.000397
438.876 0.001026
439.535 0.001793
440.194 -0.001758
440.853 0.000036
441.512 -0.000551
442.171 -0.000546
442.831 0.000975
443.49 0.002463
444.15 -0.000719
444.81 -0.000690
445.469 -0.001443
446.129 -0.000170
446.789 -0.000670
447.45 0.000195
448.11 0.000442
448.77 0.000132
449.431 0.000990
450.091 -0.001160
450.752 -0.001160
451.413 -0.002197
452.074 -0.000899
452.735 0.001467
453.396 -0.000970
454.057 -0.001171
454.719 0.000653
455.38 -0.000309
456.042 0.000490
456.704 0.002395
457.365 -0.001047
458.027 -0.000307
458.689 0.001080
459.352 0.000729
460.014 0.001043
460.676 0.001664
461.339 0.001591
462.001 -0.002687
462.664 -0.001135
463.327 -0.000343
463.99 -0.001458
464.653 -0.000314
465.316 -0.000754
465.979 -0.000824
466.642 -0.000550
467.306 -0.000269
467.97 -0.001132
468.633 -0.002683
469.297 0.000650
469.961 0.002386
470.625 -0.000283
471.289 -0.002294
471.953 0.000734
472.618 -0.000717
473.282 -0.002514
473.947 -0.002225
474.611 -0.001261
475.276 -0.000101
475.941 -0.001388
476.606 0.000218
477.271 -0.000900
477.936 -0.002105
478.602 -0.000717
479.267 -0.000429
479.933 -0.000290
480.598 -0.001692
481.264 -0.000948
481.93 -0.000231
482.596 0.000479
483.262 -0.000435
483.928 -0.000906
484.594 0.000657
485.261 -0.001686
485.927 -0.003136
486.594 -0.004156
487.26 -0.002535
487.927 -0.001259
488.594 0.000287
489.261 -0.000571
489.928 0.000198
490.596 0.000385
491.263 0.001401
491.93 -0.001838
492.598 -0.001234
493.266 -0.001743
493.933 0.000973
494.601 -0.001957
495.269 -0.000807
495.937 -0.000213
496.606 -0.000557
497.274 -0.001816
497.942 0.000128
498.611 0.000015
499.279 -0.000748
499.948 -0.000652
500.617 -0.000182
501.286 -0.002467
501.955 -0.000990
502.624 -0.001263
503.293 0.000259
503.963 0.000730
504.632 -0.000195
505.302 -0.002499
505.972 0.000989
506.641 0.000550
507.311 0.000676
507.981 -0.001743
508.651 0.001699
509.322 0.000707
509.992 -0.000107
510.662 -0.001026
511.333 -0.000621
512.004 -0.002377
512.674 0.000004
513.345 -0.000812
514.016 0.000070
514.687 0.000935
515.358 0.000341
516.029 -0.000233
516.701 -0.002061
517.372 -0.002448
518.044 -0.001495
518.716 0.000006
519.387 -0.001400
520.059 -0.000985
520.731 -0.000912
521.403 -0.000173
522.076 0.000202
522.748 -0.000044
523.42 0.000449
524.093 0.000167
524.765 0.000051
525.438 -0.001278
526.111 -0.000332
526.784 -0.000870
527.457 -0.001344
528.13 -0.000311
528.803 -0.000973
529.476 -0.000050
530.15 0.001394
530.823 -0.000957
531.497 -0.000867
532.171 0.001211
532.845 0.000362
533.519 0.000014
534.193 0.000935
534.867 -0.000352
535.541 -0.000570
536.216 0.000629
536.89 0.000047
537.564 -0.002364
538.239 -0.001312
538.914 0.000137
539.589 0.000391
540.264 -0.001316
540.939 0.000991
541.614 0.001024
542.289 -0.002903
542.965 -0.001532
543.64 -0.000783
544.316 -0.000027
544.991 -0.000062
545.667 -0.001429
546.343 -0.002852
547.019 -0.000158
547.695 0.000177
548.371 -0.000381
549.048 -0.000673
549.724 -0.001243
550.401 0.001684
551.077 -0.002198
551.754 -0.001280
552.431 0.000235
553.108 -0.000051
553.785 -0.000898
554.462 -0.000137
555.139 0.000036
555.816 0.001211
556.494 -0.002323
557.171 0.000153
557.849 -0.000308
558.527 -0.000072
559.204 0.000722
559.882 0.000481
560.56 0.000603
561.238 -0.000764
561.917 0.000424
562.595 -0.002738
563.273 -0.000803
563.952 -0.000100
564.63 -0.002152
565.309 -0.001294
565.988 -0.001801
566.667 -0.000931
567.346 -0.001238
568.025 0.000021
568.704 -0.000008
569.384 0.000621
570.063 0.000849
570.742 0.001839
571.422 -0.000322
572.102 -0.000077
572.782 -0.005223
573.462 -0.000720
574.141 -0.003856
574.822 0.000515
575.502 -0.005909
576.182 -0.005776
576.863 -0.003421
577.543 -0.005511
578.224 -0.007620
578.904 -0.004471
579.585 -0.000726
580.266 0.000471
580.947 -0.000131
581.628 -0.003343
582.309 -0.001437
582.991 -0.001601
583.672 -0.002108
584.354 0.003863
585.035 -0.005434
585.717 -0.002781
586.399 -0.001355
587.08 -0.000782
587.762 0.003317
588.444 -0.006092
589.127 -0.001323
589.809 -0.003558
590.491 -0.001269
591.174 -0.001812
591.856 0.001069
592.539 -0.000868
593.222 -0.004700
593.905 -0.003264
594.587 0.001654
595.27 -0.005557
595.954 -0.004228
596.637 -0.002346
597.32 -0.004357
598.004 -0.003121
598.687 -0.004820
599.371 -0.007738
600.055 -0.005792
600.738 -0.000015
601.422 0.000233
602.106 -0.004298
602.79 -0.003428
603.475 -0.001139
604.159 -0.007114
604.843 -0.001368
605.528 -0.001796
606.212 0.001452
606.897 0.001068
607.582 -0.003027
608.267 0.001370
608.952 -0.003132
609.637 -0.000160
610.322 -0.003222
611.007 0.000348
611.693 -0.000408
612.378 -0.003105
613.064 -0.003516
613.749 -0.001469
614.435 -0.003234
615.121 -0.001555
615.807 -0.002816
616.493 -0.002227
617.179 0.000014
617.865 -0.002448
618.552 0.000595
619.238 -0.002505
619.924 -0.001703
620.611 -0.000243
621.298 -0.000563
621.985 -0.000688
622.671 -0.003318
623.358 -0.001259
624.045 -0.001404
624.733 0.001220
625.42 -0.000491
626.107 0.001332
626.795 -0.000835
627.482 -0.001355
628.17 -0.001100
628.858 0.000499
629.545 -0.000359
630.233 -0.001568
630.921 -0.001760
631.609 -0.000371
632.298 -0.000965
632.986 -0.000789
633.674 -0.001118
634.363 -0.000306
635.051 -0.001900
635.74 -0.001088
636.429 0.000271
637.118 -0.001274
637.807 -0.003420
638.496 -0.001837
639.185 -0.000381
639.874 -0.001312
640.563 0.002004
641.253 -0.000676
641.942 -0.000285
642.632 0.001397
643.322 0.000215
644.011 -0.000183
644.701 0.000252
645.391 0.000518
646.081 0.000155
646.771 0.000739
647.462 -0.001246
648.152 0.000147
648.842 0.000154
649.533 -0.001877
650.224 -0.001720
650.914 -0.000567
651.605 -0.000721
652.296 0.001234
652.987 -0.000471
653.678 -0.000593
654.369 -0.001839
655.061 -0.004946
655.752 -0.055941
656.443 -0.003363
657.135 -0.046669
657.826 -0.026541
658.518 -0.019386
659.21 -0.017632
659.902 -0.002080
660.594 -0.002113
661.286 -0.001072
661.978 -0.000142
662.67 -0.001957
663.363 -0.000230
664.055 0.000939
664.748 -0.001855
665.44 -0.001950
666.133 0.000282
666.826 -0.000156
667.519 -0.001245
668.212 0.000434
668.905 -0.000628
669.598 0.000543
670.291 -0.001393
670.985 -0.001298
671.678 -0.000931
672.372 0.000630
673.065 -0.000446
673.759 -0.001037
674.453 0.000892
675.147 -0.000264
675.841 -0.001973
676.535 0.000608
677.229 0.000263
677.923 -0.001759
678.617 -0.001044
679.312 -0.001715
680.006 -0.000691
680.701 -0.002491
681.396 -0.000907
682.091 -0.000639
682.785 0.000152
683.48 -0.000245
684.175 0.000553
684.87 -0.002483
685.566 -0.001984
686.261 -0.003291
686.957 0.000955
687.652 -0.001466
688.348 -0.001675
689.043 -0.001760
689.739 0.001331
690.435 -0.001086
691.131 -0.001618
691.827 -0.000188
692.523 -0.001478
693.219 -0.000550
693.915 -0.000578
694.612 -0.001254
695.308 -0.002842
696.005 -0.002215
696.702 -0.001925
697.398 -0.002603
698.095 -0.004077
698.792 0.001183
699.489 0.000755
700.186 -0.000477
700.883 -0.001065
701.581 -0.001673
702.278 -0.000384
702.975 -0.002117
703.673 -0.002615
704.37 0.000412
705.068 0.001054
705.766 0.000826
706.464 -0.002159
707.162 0.001957
707.86 -0.001911
708.558 -0.000859
709.256 -0.000428
709.955 -0.000973
710.653 0.000191
711.351 0.001677
712.05 0.000003
712.749 -0.000752
713.447 0.000258
714.146 0.000476
714.845 -0.000188
715.544 -0.001447
716.243 0.001038
716.942 -0.001484
717.642 -0.000260
718.341 -0.000957
719.04 -0.001613
719.74 0.000102
720.439 -0.001228
721.139 0.000091
721.839 -0.002060
722.539 -0.000197
723.239 -0.000715
723.939 -0.000017
724.639 -0.002665
725.339 -0.001470
726.039 0.000437
726.74 -0.001352
727.44 -0.002120
728.141 -0.001487
728.841 -0.000446
729.542 -0.000441
730.243 -0.000177
730.944 -0.002345
731.645 -0.001884
732.346 -0.000349
733.047 -0.001879
733.748 -0.001859
734.449 -0.001886
735.151 -0.000635
735.852 -0.001708
736.554 -0.002446
737.256 -0.001707
737.957 0.000153
738.659 -0.000726
739.361 -0.001371
740.063 0.000887
740.765 -0.000395
741.467 -0.001461
742.169 0.001626
742.872 0.000857
743.574 -0.000201
744.277 0.000503
744.979 -0.002556
745.682 0.000000
746.385 -0.001096
747.087 0.000306
747.79 -0.001195
748.493 -0.000217
749.196 -0.000104
749.899 0.000688
750.603 -0.000469
751.306 -0.001278
752.01 -0.000191
752.713 -0.002632
753.417 0.000513
754.12 -0.001256
754.824 -0.000303
755.528 -0.000401
756.232 -0.002450
756.936 -0.000888
757.64 -0.000813
758.344 -0.001773
759.048 -0.000973
759.752 -0.002160
760.457 -0.000840
761.161 -0.002074
761.866 -0.004611
762.571 -0.000213
763.275 -0.001212
763.98 -0.002791
764.685 -0.001101
765.39 -0.002076
766.095 -0.001216
766.8 -0.000099
767.505 -0.000459
768.211 -0.001056
768.916 -0.003354
769.621 -0.000200
770.327 0.000612
771.033 0.000288
771.738 -0.003252
772.444 -0.001969
773.15 -0.000451
773.856 -0.001074
774.562 0.000887
775.268 0.001206
775.974 -0.000605
776.68 -0.000755
777.387 -0.000593
778.093 -0.001787
778.8 -0.000419
779.506 0.000426
780.213 -0.000935
780.92 -0.001029
781.626 0.002080
782.333 -0.000259
783.04 -0.001243
783.747 -0.000930
784.455 -0.000179
785.162 -0.001986
785.869 -0.000264
786.577 -0.000686
787.284 -0.001508
787.992 0.000156
788.699 -0.000900
789.407 0.000803
790.115 -0.001389
790.823 -0.001649
791.531 0.000045
792.239 -0.000402
792.947 0.001440
793.655 -0.001000
794.363 -0.002229
795.072 -0.001760
795.78 0.000504
796.489 -0.002455
797.197 -0.000145
797.906 0.000597
798.615 -0.000075
799.323 -0.000754
800.032 -0.001229
800.741 -0.000779
801.45 -0.002375
802.159 -0.000256
802.869 0.001190
803.578 -0.001507
804.287 -0.000318
804.997 0.000553
805.706 -0.000603
806.416 -0.000592
807.126 -0.000503
807.835 -0.000989
808.545 0.000235
809.255 0.000467
809.965 0.000174
810.675 0.000206
811.385 -0.001039
812.096 0.000370
812.806 -0.001525
813.516 0.001312
814.227 -0.001735
814.937 0.000571
815.648 0.001931
816.359 -0.000524
817.069 -0.001645
817.78 0.000672
818.491 0.000043
819.202 -0.000383
819.913 0.000679
820.624 -0.002531
821.336 -0.002369
822.047 -0.001543
822.758 -0.000566
823.47 -0.001301
824.181 -0.001973
824.893 0.000398
825.605 -0.000587
826.317 -0.001062
827.028 -0.000938
827.74 -0.001455
828.452 -0.000878
829.164 0.000616
829.876 0.000918
830.589 -0.000502
831.301 -0.000535
832.013 -0.000606
832.726 -0.000524
833.438 -0.000267
834.151 -0.000721
834.864 -0.001058
835.577 -0.000212
836.289 -0.001722
837.002 -0.001639
837.715 0.001456
838.428 0.000041
839.141 -0.000594
839.855 0.000094
840.568 -0.000543
841.281 0.000298
841.995 0.000794
842.708 0.000751
843.422 -0.000202
844.135 -0.000395
844.849 -0.001393
845.563 -0.000437
846.277 0.000913
846.991 0.000709
847.705 0.000136
848.419 -0.000356
849.133 -0.000582
849.847 0.000326
850.562 0.000231
851.276 0.000575
851.991 0.001015
852.705 0.000231
853.42 0.001527
854.135 -0.000618
854.85 -0.001339
855.564 0.000316
856.279 -0.001069
856.994 0.000950
857.709 -0.000295
858.424 0.000175
859.14 -0.000462
859.855 0.000273
860.57 -0.001088
861.286 -0.000521
862.001 -0.000324
862.717 0.000016
863.433 -0.000345
864.148 0.000614
864.864 0.000449
865.58 0.000582
866.296 -0.000290
867.012 -0.000669
867.728 0.000691
868.444 -0.000722
869.161 -0.000086
869.877 0.000730
870.593 0.000335
871.31 -0.000282
872.026 0.001754
872.743 -0.000578
873.46 -0.001661
874.176 0.000154
874.893 -0.000761
875.61 -0.001762
876.327 -0.001566
877.044 -0.000166
877.761 0.000777
878.478 -0.000461
879.196 -0.001333
879.913 0.000358
880.63 -0.000422
881.348 -0.000648
882.065 -0.000675
882.783 -0.001129
883.501 0.000674
884.218 0.000249
884.936 0.000369
885.654 -0.000026
886.372 -0.000089
887.09 -0.000265
887.808 -0.000043
888.527 0.001029
889.245 0.000146
889.963 0.000495
890.682 0.000516
891.4 0.000107
892.119 -0.000640
892.837 -0.001043
893.556 -0.000652
894.275 -0.000435
894.994 -0.000832
895.712 -0.001144
896.431 -0.000374
897.15 0.000976
897.87 -0.000178
898.589 -0.000206
899.308 0.000347
900.027 0.001250
900.747 -0.000430
901.466 0.000097
902.186 -0.000332
902.905 -0.000459
903.625 -0.000529
904.345 -0.000466
905.064 0.000056
905.784 -0.001492
906.504 -0.000553
907.224 -0.000377
907.944 0.000712
908.664 0.000734
909.385 -0.000599
910.105 -0.000245
910.825 -0.000776
911.546 -0.000146
912.266 -0.000846
912.987 -0.000338
913.707 0.001068
914.428 0.000304
915.149 -0.000578
915.87 -0.000044
916.591 -0.000248
917.312 0.000277
918.033 -0.000061
918.754 -0.000342
919.475 -0.000068
920.196 0.000157
920.918 -0.000181
921.639 -0.001995
922.361 -0.000434
923.082 0.001001
923.804 -0.000688
924.525 -0.000308
925.247 -0.000066
925.969 -0.000030
926.691 -0.000707
927.413 0.000185
928.135 -0.000733
928.857 -0.000301
929.579 -0.001063
930.301 0.000533
931.023 0.000427
931.746 0.000114
932.468 -0.000283
933.191 -0.000963
933.913 0.000361
934.636 0.000554
935.358 -0.000571
936.081 -0.000442
936.804 -0.000125
937.527 -0.000627
938.25 -0.000895
938.973 -0.001672
939.696 0.000389
940.419 0.000078
941.142 0.000862
941.865 -0.001142
942.589 -0.000804
943.312 -0.001482
944.036 -0.000304
944.759 -0.001197
945.483 -0.001008
946.207 0.000511
946.93 0.000825
947.654 -0.000846
948.378 -0.000735
949.102 -0.000051
949.826 -0.000660
950.55 -0.000814
951.274 0.000591
951.998 0.000578
952.723 0.000468
953.447 0.000677
954.171 0.000997
954.896 0.000279
955.62 -0.000337
956.345 -0.000304
957.07 0.000663
957.794 0.000001
958.519 -0.000273
959.244 0.000226
959.969 0.000438
960.694 0.000571
961.419 -0.000189
962.144 0.000233
962.869 -0.000312
963.594 -0.000938
964.32 -0.001004
965.045 0.000405
965.77 -0.000038
966.496 0.000652
967.222 0.000044
967.947 0.000002
968.673 0.000099
969.399 0.001527
970.125 -0.000389
970.85 0.000993
971.576 0.001004
972.302 -0.000849
973.028 -0.000209
973.755 -0.000364
974.481 -0.000354
975.207 -0.000677
975.933 -0.000854
976.66 -0.000267
977.386 0.000894
978.113 0.000817
978.839 -0.001201
979.566 0.000532
980.293 -0.000470
981.019 -0.000030
981.746 0.000493
982.473 -0.000425
983.2 -0.000533
983.927 -0.000199
984.654 0.000128
985.381 -0.000878
986.109 0.000983
986.836 -0.000452
987.563 -0.000459
988.291 0.001113
989.018 -0.001338
989.746 0.000691
990.473 -0.000847
991.201 0.000254
991.928 -0.000445
992.656 -0.000873
993.384 -0.000727
994.112 -0.000139
994.84 0.000352
995.568 -0.000252
996.296 -0.000530
997.024 0.000726
997.752 0.000315
998.481 -0.000016
999.209 0.000609
999.937 -0.000087
1000.67 0.000711
1001.39 0.000043
1002.12 0.000357
1002.85 -0.000382
1003.58 0.001274
1004.31 0.000145
1005.04 -0.000840
1005.77 -0.000558
1006.5 0.000251
1007.22 0.000233
1007.95 -0.000787
1008.68 -0.000097
1009.41 0.002030
1010.14 0.000230
1010.87 0.000085
1011.6 0.000229
1012.33 0.000480
1013.06 0.001456
1013.79 -0.000284
1014.52 -0.000825
1015.25 0.000261
1015.98 -0.000330
1016.71 0.000500
1017.44 -0.000568
1018.17 -0.001345
1018.9 -0.000536
1019.63 -0.000266
1020.36 -0.000277
1021.09 -0.002091
1021.82 0.000412
1022.55 -0.000656
1023.03 -0.000009