File: Auto_Polymerization/Data/UV_VIS_Spectra/MRG-061-F-3_pure_compounds_spectra_test/DMSO+Anisole_spectrum_2025-06-19_14-50-05.txt
# Wavelength (nm)	Intensity (a.u.)
197.7802	0.002290
198.3922	0.000707
199.0044	0.001171
199.6168	0.000834
200.2292	0.001403
200.8418	0.001045
201.4546	-0.000116
202.0674	-0.000580
202.6805	-0.000327
203.2936	0.000559
203.9069	0.000158
204.5203	-0.000749
205.1338	0.000222
205.7475	0.001488
206.3614	0.000264
206.9753	0.000834
207.5894	0.001488
208.2036	0.000369
208.8180	0.000580
209.4325	0.000538
210.0471	0.001045
210.6618	0.000011
211.2767	0.001572
211.8918	-0.000095
212.5069	0.002226
213.1222	-0.000791
213.7376	0.001825
214.3532	-0.000728
214.9689	0.000770
215.5847	0.000222
216.2007	0.000876
216.8168	0.000960
217.4330	-0.000053
218.0494	-0.000285
218.6659	0.001298
219.2825	0.000601
219.8992	-0.000285
220.5161	-0.001467
221.1332	0.000222
221.7503	0.000285
222.3676	0.000348
222.9850	-0.000222
223.6026	0.001192
224.2203	0.000897
224.8381	-0.000074
225.4561	0.000137
226.0742	0.000475
226.6924	0.001635
227.3107	0.000200
227.9292	0.000601
228.5478	0.000475
229.1666	0.000644
229.7855	0.001298
230.4045	-0.000095
231.0236	0.001319
231.6429	0.001530
232.2623	-0.000749
232.8818	-0.000074
233.5015	-0.000116
234.1213	-0.001699
234.7413	0.000770
235.3613	0.001424
235.9815	0.001066
236.6018	0.000074
237.2223	-0.000834
237.8429	0.001108
238.4636	0.001445
239.0845	0.000960
239.7055	0.000433
240.3266	-0.000538
240.9478	-0.000475
241.5692	0.000686
242.1907	0.000559
242.8124	-0.001108
243.4341	0.000074
244.0560	-0.000559
244.6781	-0.000559
245.3002	-0.000559
245.9225	0.001804
246.5449	0.000011
247.1675	0.000960
247.7902	-0.000285
248.4130	0.001382
249.0359	-0.000222
249.6590	-0.000770
250.2822	-0.000137
250.9056	0.003429
251.5290	0.001382
252.1526	0.000243
252.7763	0.000876
253.4002	0.000728
254.0242	-0.002332
254.6483	0.000517
255.2725	0.000264
255.8969	0.000348
256.5214	0.001572
257.1460	0.000918
257.7708	0.000770
258.3957	0.000200
259.0207	-0.001002
259.6459	-0.000264
260.2711	0.000243
260.8965	-0.000116
261.5221	-0.000770
262.1477	0.001403
262.7735	-0.000243
263.3995	-0.000454
264.0255	0.000053
264.6517	0.001234
265.2780	0.000179
265.9044	0.000074
266.5310	-0.000475
267.1577	-0.000053
267.7845	0.000876
268.4114	0.000749
269.0385	0.000222
269.6657	-0.000433
270.2931	0.000601
270.9205	-0.000918
271.5481	-0.000834
272.1758	0.000559
272.8037	0.000728
273.4316	0.000200
274.0597	0.000074
274.6880	0.000411
275.3163	0.000348
275.9448	0.000834
276.5734	0.001023
277.2022	0.000327
277.8310	-0.000222
278.4600	0.000032
279.0891	0.001361
279.7184	0.001213
280.3477	0.000179
280.9772	0.001783
281.6069	-0.001192
282.2366	-0.000032
282.8665	-0.000285
283.4965	-0.000158
284.1266	0.000095
284.7569	0.001129
285.3873	-0.000053
286.0178	-0.000411
286.6484	-0.000454
287.2792	0.000939
287.9101	0.000855
288.5411	0.000496
289.1723	0.000433
289.8035	0.001846
290.4349	-0.000264
291.0665	0.000749
291.6981	0.001277
292.3299	0.001741
292.9618	0.002036
293.5938	-0.000158
294.2260	0.000559
294.8582	0.001614
295.4906	0.000348
296.1232	0.000834
296.7558	0.000454
297.3886	0.000137
298.0215	0.001277
298.6545	-0.000454
299.2877	0.000053
299.9210	0.000158
300.5544	-0.000559
301.1879	0.001340
301.8215	-0.000538
302.4553	0.001720
303.0892	0.000390
303.7233	0.000960
304.3574	0.001635
304.9917	0.002627
305.6261	-0.000707
306.2606	-0.000960
306.8953	0.000644
307.5301	0.000686
308.1650	0.000601
308.8000	0.001066
309.4351	0.001361
310.0704	0.000770
310.7058	0.000200
311.3413	0.000728
311.9770	0.000411
312.6127	0.001614
313.2486	0.001804
313.8846	0.002290
314.5208	0.000011
315.1570	0.002395
315.7934	0.001403
316.4299	0.002184
317.0666	0.000306
317.7033	0.000812
318.3402	0.000939
318.9772	0.002163
319.6143	0.001846
320.2516	0.001488
320.8890	0.001403
321.5265	0.001403
322.1641	0.000686
322.8018	0.002648
323.4397	0.001382
324.0777	0.003049
324.7158	0.001678
325.3540	0.003471
325.9924	0.002986
326.6308	0.001635
327.2694	0.002923
327.9082	0.003070
328.5470	0.002733
329.1860	0.003260
329.8251	0.003176
330.4643	0.004315
331.1036	0.002965
331.7431	0.003893
332.3826	0.003239
333.0223	0.003429
333.6622	0.003788
334.3021	0.003978
334.9422	0.004294
335.5823	0.005919
336.2227	0.006003
336.8631	0.005814
337.5036	0.004547
338.1443	0.005012
338.7851	0.004484
339.4260	0.004611
340.0670	0.004273
340.7082	0.005434
341.3495	0.005349
341.9909	0.005835
342.6324	0.005012
343.2740	0.005476
343.9158	0.004189
344.5577	0.006552
345.1997	0.006848
345.8418	0.006425
346.4840	0.008219
347.1264	0.006362
347.7689	0.007628
348.4115	0.006130
349.0542	0.005771
349.6971	0.007924
350.3400	0.006236
350.9831	0.008240
351.6263	0.007818
352.2696	0.008071
352.9131	0.008240
353.5566	0.008240
354.2003	0.008409
354.8441	0.009295
355.4881	0.007860
356.1321	0.009527
356.7763	0.009422
357.4206	0.007692
358.0650	0.009295
358.7095	0.011532
359.3541	0.008747
359.9989	0.008894
360.6438	0.009907
361.2888	0.010393
361.9339	0.009781
362.5791	0.011026
363.2245	0.011511
363.8699	0.011216
364.5155	0.010097
365.1612	0.010308
365.8071	0.009506
366.4530	0.012313
367.0991	0.010815
367.7453	0.012798
368.3916	0.011659
369.0380	0.011722
369.6845	0.009591
370.3312	0.013938
370.9780	0.012228
371.6249	0.012629
372.2719	0.013790
372.9190	0.011701
373.5663	0.013811
374.2136	0.013727
374.8611	0.015436
375.5087	0.015541
376.1564	0.014423
376.8043	0.016723
377.4522	0.016069
378.1003	0.017103
378.7485	0.019129
379.3968	0.018580
380.0452	0.019530
380.6938	0.019445
381.3424	0.018411
381.9912	0.017462
382.6401	0.019551
383.2891	0.021788
383.9382	0.019487
384.5875	0.021555
385.2368	0.022210
385.8863	0.022083
386.5359	0.021661
387.1856	0.021619
387.8355	0.025269
388.4854	0.022568
389.1355	0.024784
389.7856	0.024763
390.4359	0.021534
391.0863	0.022948
391.7369	0.025691
392.3875	0.027358
393.0383	0.029384
393.6891	0.027802
394.3401	0.026219
394.9912	0.030144
395.6425	0.027907
396.2938	0.028540
396.9453	0.031241
397.5968	0.029384
398.2485	0.031916
398.9003	0.033330
399.5522	0.031832
400.2043	0.032697
400.8564	0.030692
401.5087	0.031114
402.1610	0.031515
402.8135	0.030840
403.4661	0.030946
404.1189	0.033415
404.7717	0.031874
405.4246	0.033098
406.0777	0.034322
406.7309	0.031157
407.3842	0.030988
408.0376	0.031157
408.6911	0.032254
409.3448	0.033499
409.9985	0.033288
410.6524	0.032233
411.3064	0.032444
411.9605	0.031663
412.6147	0.036917
413.2690	0.033626
413.9234	0.033288
414.5780	0.034554
415.2326	0.032549
415.8874	0.034955
416.5423	0.034027
417.1973	0.033182
417.8524	0.033984
418.5077	0.033858
419.1630	0.036622
419.8185	0.034807
420.4741	0.037424
421.1298	0.041117
421.7856	0.043965
422.4415	0.041412
423.0975	0.039935
423.7536	0.040758
424.4099	0.037065
425.0663	0.037065
425.7228	0.035694
426.3793	0.035124
427.0361	0.037466
427.6929	0.039745
428.3498	0.039745
429.0068	0.037424
429.6640	0.042509
430.3213	0.043396
430.9787	0.044641
431.6362	0.039112
432.2938	0.035651
432.9515	0.036664
433.6093	0.040737
434.2673	0.041433
434.9253	0.040146
435.5835	0.038711
436.2418	0.040230
436.9001	0.042256
437.5586	0.040821
438.2173	0.041454
438.8760	0.043227
439.5348	0.041560
440.1938	0.040378
440.8528	0.042868
441.5120	0.049410
442.1713	0.052702
442.8307	0.047827
443.4902	0.049199
444.1498	0.050486
444.8095	0.050992
445.4694	0.050634
446.1293	0.049178
446.7894	0.047869
447.4496	0.049895
448.1098	0.046688
448.7702	0.046160
449.4307	0.048756
450.0914	0.048903
450.7521	0.047827
451.4129	0.044999
452.0739	0.047679
452.7349	0.048186
453.3961	0.043353
454.0574	0.041222
454.7188	0.042193
455.3803	0.044641
456.0419	0.044999
456.7036	0.044282
457.3654	0.043818
458.0274	0.046709
458.6894	0.050127
459.3516	0.047553
460.0138	0.049030
460.6762	0.045759
461.3387	0.048144
462.0013	0.043586
462.6640	0.043480
463.3268	0.047553
463.9897	0.046814
464.6528	0.052301
465.3159	0.053398
465.9792	0.054981
466.6425	0.049156
467.3060	0.045886
467.9696	0.046076
468.6333	0.043438
469.2970	0.042594
469.9610	0.038753
470.6250	0.039872
471.2891	0.040230
471.9533	0.038901
472.6177	0.041011
473.2821	0.044092
473.9467	0.043480
474.6113	0.042657
475.2761	0.047173
475.9410	0.047257
476.6060	0.045210
477.2711	0.040273
477.9363	0.043121
478.6016	0.044662
479.2670	0.047321
479.9325	0.046877
480.5982	0.049051
481.2639	0.048671
481.9298	0.050845
482.5957	0.047173
483.2618	0.047743
483.9280	0.048798
484.5943	0.054685
485.2606	0.055002
485.9271	0.177159
486.5937	0.124680
487.2605	0.094694
487.9273	0.058483
488.5942	0.051098
489.2612	0.050802
489.9284	0.049135
490.5956	0.050634
491.2630	0.050275
491.9304	0.046350
492.5980	0.048903
493.2657	0.048650
493.9334	0.050190
494.6013	0.049346
495.2693	0.047004
495.9374	0.046561
496.6056	0.054326
497.2739	0.050486
497.9423	0.049979
498.6109	0.047405
499.2795	0.049684
499.9482	0.050655
500.6171	0.048734
501.2860	0.052090
501.9551	0.051625
502.6242	0.053588
503.2935	0.050739
503.9628	0.051393
504.6323	0.049051
505.3019	0.047574
505.9716	0.048038
506.6414	0.049135
507.3113	0.044957
507.9813	0.046477
508.6514	0.046645
509.3216	0.045295
509.9919	0.044662
510.6623	0.047785
511.3329	0.045189
512.0035	0.046645
512.6742	0.041792
513.3451	0.043332
514.0160	0.041328
514.6871	0.040927
515.3582	0.038437
516.0295	0.040568
516.7008	0.040863
517.3723	0.040019
518.0439	0.039640
518.7155	0.040083
519.3873	0.039555
520.0592	0.040315
520.7312	0.037487
521.4033	0.036833
522.0755	0.035883
522.7478	0.036812
523.4202	0.034638
524.0927	0.037930
524.7653	0.035293
525.4380	0.034343
526.1108	0.034849
526.7837	0.035525
527.4568	0.037593
528.1299	0.035208
528.8031	0.039513
529.4765	0.037888
530.1499	0.037994
530.8234	0.036875
531.4971	0.036010
532.1708	0.035820
532.8447	0.039007
533.5186	0.042298
534.1927	0.039661
534.8668	0.045337
535.5411	0.042953
536.2155	0.040294
536.8899	0.038078
537.5645	0.039618
538.2392	0.045063
538.9139	0.042256
539.5888	0.043691
540.2638	0.042087
540.9389	0.041750
541.6140	0.043818
542.2893	0.046540
542.9647	0.045063
543.6402	0.046455
544.3158	0.046455
544.9915	0.047827
545.6673	0.045253
546.3432	0.043332
547.0192	0.045379
547.6953	0.047827
548.3715	0.055846
549.0478	0.048122
549.7242	0.046076
550.4007	0.046434
551.0773	0.041876
551.7540	0.043227
552.4308	0.050127
553.1077	0.048186
553.7847	0.050338
554.4618	0.048207
555.1390	0.045316
555.8163	0.049768
556.4937	0.050992
557.1712	0.047110
557.8488	0.049832
558.5266	0.046519
559.2044	0.046223
559.8823	0.043438
560.5603	0.053883
561.2384	0.060150
561.9166	0.053778
562.5949	0.050866
563.2733	0.057154
563.9519	0.054601
564.6305	0.060762
565.3092	0.058990
565.9880	0.057724
566.6669	0.061501
567.3459	0.072727
568.0250	0.077327
568.7043	0.090600
569.3836	0.106047
570.0630	0.136412
570.7425	0.135863
571.4221	0.162008
572.1018	0.172939
572.7816	0.147427
573.4615	0.173488
574.1415	0.198092
574.8216	0.210753
575.5018	0.213602
576.1821	0.191023
576.8626	0.212188
577.5431	0.227677
578.2237	0.284736
578.9044	0.231834
579.5851	0.229006
580.2660	0.238038
580.9470	0.236687
581.6281	0.358655
582.3093	0.341099
582.9906	0.265048
583.6720	0.217548
584.3535	0.216409
585.0351	0.243482
585.7167	0.253421
586.3985	0.220798
587.0804	0.228542
587.7624	0.243377
588.4445	0.212188
589.1266	0.186402
589.8089	0.172116
590.4913	0.154433
591.1737	0.140042
591.8563	0.141540
592.5389	0.161207
593.2217	0.209276
593.9046	0.199169
594.5875	0.175408
595.2705	0.203347
595.9537	0.177793
596.6369	0.146351
597.3203	0.151964
598.0037	0.145718
598.6872	0.159518
599.3709	0.185811
600.0546	0.186360
600.7384	0.183785
601.4223	0.183448
602.1064	0.168951
602.7905	0.169331
603.4747	0.190411
604.1590	0.170745
604.8434	0.154728
605.5279	0.164161
606.2125	0.169183
606.8972	0.153694
607.5819	0.158316
608.2668	0.148925
608.9518	0.137087
609.6369	0.131221
610.3220	0.148419
611.0073	0.136475
611.6927	0.135357
612.3781	0.128668
613.0637	0.126959
613.7493	0.123245
614.4351	0.128288
615.1209	0.124236
615.8068	0.125925
616.4929	0.110942
617.1790	0.105414
617.8652	0.106469
618.5515	0.099737
619.2379	0.089756
619.9244	0.091191
620.6110	0.090832
621.2977	0.072031
621.9845	0.077728
622.6714	0.079817
623.3584	0.088828
624.0454	0.081273
624.7326	0.087920
625.4199	0.080387
626.1072	0.077264
626.7947	0.066143
627.4822	0.067958
628.1698	0.061079
628.8576	0.055825
629.5454	0.060150
630.2333	0.058167
630.9213	0.054643
631.6094	0.051309
632.2976	0.050401
632.9859	0.041982
633.6743	0.044915
634.3628	0.040357
635.0514	0.038563
635.7400	0.039450
636.4288	0.045295
637.1177	0.043754
637.8066	0.038838
638.4957	0.042151
639.1848	0.039661
639.8740	0.037119
640.5633	0.035597
641.2528	0.032664
641.9423	0.029573
642.6319	0.028065
643.3216	0.026883
644.0113	0.028512
644.7012	0.025112
645.3912	0.026093
646.0812	0.024162
646.7714	0.026336
647.4616	0.024860
648.1520	0.027822
648.8424	0.031296
649.5329	0.033491
650.2236	0.029290
650.9143	0.026795
651.6051	0.028660
652.2960	0.031223
652.9870	0.031454
653.6780	0.030469
654.3692	0.033840
655.0605	0.058955
655.7518	0.927938
656.4433	1.000000
657.1348	0.828135
657.8264	0.501796
658.5181	0.381776
659.2099	0.299423
659.9018	0.080119
660.5938	0.029558
661.2859	0.023273
661.9781	0.021302
662.6704	0.020217
663.3627	0.019428
664.0552	0.021305
664.7477	0.020974
665.4403	0.023692
666.1330	0.023290
666.8259	0.018700
667.5188	0.021472
668.2117	0.019854
668.9048	0.019403
669.5980	0.017462
670.2913	0.020690
670.9846	0.020775
671.6781	0.028814
672.3716	0.033773
673.0652	0.031410
673.7589	0.028055
674.4527	0.026599
675.1466	0.025037
675.8406	0.025839
676.5347	0.022632
677.2288	0.021766
677.9231	0.028603
678.6174	0.030714
679.3119	0.030587
680.0064	0.032085
680.7010	0.032824
681.3957	0.034702
682.0905	0.031157
682.7854	0.028202
683.4803	0.030081
684.1754	0.030798
684.8705	0.038458
685.5658	0.041834
686.2611	0.041370
686.9565	0.040399
687.6520	0.042362
688.3476	0.035672
689.0433	0.031368
689.7390	0.034238
690.4349	0.032993
691.1308	0.037424
691.8269	0.034913
692.5230	0.037150
693.2192	0.036348
693.9155	0.036073
694.6119	0.031579
695.3083	0.035103
696.0049	0.029279
696.7016	0.033942
697.3983	0.037424
698.0951	0.035672
698.7920	0.036643
699.4890	0.033077
700.1861	0.032571
700.8833	0.028624
701.5806	0.028477
702.2779	0.028097
702.9753	0.029447
703.6729	0.027633
704.3705	0.026810
705.0682	0.024172
705.7660	0.021914
706.4638	0.028836
707.1618	0.035377
707.8599	0.036221
708.5580	0.035229
709.2562	0.033056
709.9545	0.031832
710.6529	0.035820
711.3514	0.027696
712.0500	0.025734
712.7486	0.027823
713.4474	0.029975
714.1462	0.033604
714.8451	0.032676
715.5441	0.032908
716.2432	0.029764
716.9424	0.026177
717.6416	0.024531
718.3410	0.028392
719.0404	0.028371
719.7399	0.026979
720.4395	0.026746
721.1392	0.029426
721.8390	0.028540
722.5388	0.028160
723.2388	0.025586
723.9388	0.027717
724.6389	0.026029
725.3391	0.029173
726.0394	0.032381
726.7398	0.031157
727.4403	0.032697
728.1408	0.031494
728.8414	0.031030
729.5421	0.035335
730.2429	0.034195
730.9438	0.041180
731.6448	0.041961
732.3458	0.039091
733.0470	0.040188
733.7482	0.042573
734.4495	0.050866
735.1509	0.046287
735.8524	0.047384
736.5539	0.045021
737.2556	0.045527
737.9573	0.041708
738.6591	0.037508
739.3610	0.044198
740.0630	0.042024
740.7651	0.036348
741.4672	0.034385
742.1695	0.034027
742.8718	0.032845
743.5742	0.029975
744.2767	0.029764
744.9792	0.030840
745.6819	0.025860
746.3846	0.028371
747.0874	0.028730
747.7903	0.028456
748.4933	0.028308
749.1964	0.028287
749.8995	0.035757
750.6028	0.038753
751.3061	0.037867
752.0095	0.039007
752.7130	0.038859
753.4166	0.035820
754.1202	0.040568
754.8239	0.038162
755.5278	0.040378
756.2317	0.043100
756.9356	0.048059
757.6397	0.055508
758.3438	0.055656
759.0481	0.051098
759.7524	0.058336
760.4568	0.060361
761.1613	0.061269
761.8658	0.049009
762.5705	0.045126
763.2752	0.045843
763.9800	0.048186
764.6849	0.052891
765.3898	0.054875
766.0949	0.045316
766.8000	0.039302
767.5052	0.035061
768.2105	0.041982
768.9159	0.045485
769.6214	0.044957
770.3269	0.042699
771.0325	0.047067
771.7382	0.044641
772.4440	0.038901
773.1499	0.035757
773.8558	0.036327
774.5618	0.031178
775.2679	0.027696
775.9741	0.025438
776.6804	0.024299
777.3868	0.023391
778.0932	0.025586
778.7997	0.026599
779.5063	0.031009
780.2130	0.028413
780.9197	0.029447
781.6265	0.031832
782.3335	0.032697
783.0405	0.031326
783.7475	0.032043
784.4547	0.031558
785.1619	0.026683
785.8692	0.026894
786.5766	0.027253
787.2841	0.027633
787.9917	0.030334
788.6993	0.030439
789.4070	0.029954
790.1148	0.026367
790.8227	0.022800
791.5306	0.024320
792.2387	0.023307
792.9468	0.021218
793.6550	0.019677
794.3632	0.028962
795.0716	0.030313
795.7800	0.029447
796.4885	0.023307
797.1971	0.020690
797.9058	0.024024
798.6145	0.021197
799.3233	0.022125
800.0322	0.017293
800.7412	0.018242
801.4503	0.016934
802.1594	0.016027
802.8686	0.015668
803.5779	0.017419
804.2873	0.016491
804.9968	0.016786
805.7063	0.018686
806.4159	0.022231
807.1256	0.023792
807.8354	0.020015
808.5452	0.021429
809.2551	0.022779
809.9651	0.019825
810.6752	0.019361
811.3853	0.016407
812.0956	0.015225
812.8059	0.013136
813.5163	0.015204
814.2267	0.015900
814.9373	0.017166
815.6479	0.015246
816.3586	0.014444
817.0694	0.014803
817.7802	0.013136
818.4912	0.013663
819.2022	0.010456
819.9133	0.011574
820.6244	0.013980
821.3357	0.014444
822.0470	0.013030
822.7584	0.011595
823.4698	0.011595
824.1814	0.009823
824.8930	0.009338
825.6047	0.011574
826.3165	0.011701
827.0283	0.012355
827.7402	0.014233
828.4522	0.011701
829.1643	0.011300
829.8765	0.012165
830.5887	0.008873
831.3010	0.008979
832.0134	0.008240
832.7259	0.007797
833.4384	0.007860
834.1510	0.010920
834.8637	0.008409
835.5765	0.009126
836.2893	0.008831
837.0022	0.008304
837.7152	0.007565
838.4283	0.007396
839.1414	0.005666
839.8546	0.007502
840.5679	0.006763
841.2813	0.005075
841.9947	0.006109
842.7082	0.005560
843.4218	0.004991
844.1355	0.004569
844.8492	0.004948
845.5631	0.004294
846.2770	0.005054
846.9909	0.005961
847.7050	0.005877
848.4191	0.004189
849.1333	0.003746
849.8475	0.005729
850.5619	0.004674
851.2763	0.004146
851.9908	0.005455
852.7053	0.009126
853.4200	0.011173
854.1347	0.012840
854.8495	0.014170
855.5643	0.011891
856.2792	0.012418
856.9942	0.011933
857.7093	0.009401
858.4245	0.009570
859.1397	0.006974
859.8550	0.008472
860.5704	0.007016
861.2858	0.007059
862.0013	0.007059
862.7169	0.006447
863.4326	0.006151
864.1483	0.006510
864.8642	0.004400
865.5800	0.005750
866.2960	0.003830
867.0120	0.004421
867.7281	0.004864
868.4443	0.006953
869.1606	0.002838
869.8769	0.005349
870.5933	0.004484
871.3097	0.005518
872.0263	0.004674
872.7429	0.004104
873.4596	0.003535
874.1763	0.005391
874.8932	0.005666
875.6101	0.007227
876.3270	0.005307
877.0441	0.005919
877.7612	0.006784
878.4784	0.006932
879.1957	0.006404
879.9130	0.007755
880.6304	0.007649
881.3479	0.008515
882.0654	0.006425
882.7831	0.004653
883.5007	0.005877
884.2185	0.006404
884.9363	0.004526
885.6542	0.007206
886.3722	0.006088
887.0903	0.005117
887.8084	0.006383
888.5266	0.006046
889.2448	0.007080
889.9632	0.005033
890.6816	0.004780
891.4001	0.004653
892.1186	0.004653
892.8372	0.004547
893.5559	0.004822
894.2747	0.003239
894.9935	0.004611
895.7124	0.004442
896.4314	0.006425
897.1504	0.004991
897.8695	0.006067
898.5887	0.004273
899.3079	0.004611
900.0272	0.002543
900.7466	0.005581
901.4661	0.004146
902.1856	0.004463
902.9052	0.002817
903.6249	0.003999
904.3446	0.005497
905.0644	0.004379
905.7843	0.003429
906.5043	0.005603
907.2243	0.005328
907.9444	0.004991
908.6645	0.003746
909.3847	0.003598
910.1050	0.003577
910.8254	0.003492
911.5458	0.002733
912.2663	0.004358
912.9869	0.004146
913.7075	0.003429
914.4283	0.003809
915.1490	0.004294
915.8699	0.002733
916.5908	0.003598
917.3118	0.002986
918.0328	0.002543
918.7539	0.003366
919.4751	0.004358
920.1964	0.003260
920.9177	0.003746
921.6391	0.003324
922.3606	0.003471
923.0821	0.002311
923.8037	0.004168
924.5254	0.002079
925.2471	0.001994
925.9689	0.001277
926.6908	0.001171
927.4127	0.002100
928.1347	0.002036
928.8568	0.001952
929.5789	0.001445
930.3011	0.002754
931.0234	0.002543
931.7457	0.003387
932.4681	0.002501
933.1906	0.002015
933.9131	0.003049
934.6358	0.002015
935.3584	0.003450
936.0812	0.000200
936.8040	0.001403
937.5269	0.002648
938.2498	0.001213
938.9728	0.001699
939.6959	0.001846
940.4190	0.000496
941.1422	0.001994
941.8655	0.000834
942.5889	0.001277
943.3123	0.002015
944.0357	0.001361
944.7593	0.001277
945.4829	-0.000243
946.2066	-0.000327
946.9303	0.001298
947.6541	0.001234
948.3780	0.002057
949.1019	0.001720
949.8259	0.000834
950.5500	0.000939
951.2741	0.001530
951.9983	0.002585
952.7226	0.000496
953.4469	0.002458
954.1713	0.001593
954.8958	0.001973
955.6203	0.001614
956.3449	0.000981
957.0696	0.000306
957.7943	0.000749
958.5191	0.001319
959.2439	0.001973
959.9688	0.000285
960.6938	0.001234
961.4189	-0.000264
962.1440	0.000707
962.8692	0.000475
963.5944	0.001192
964.3197	0.001192
965.0451	0.000411
965.7705	0.001192
966.4960	0.000897
967.2216	0.000454
967.9472	-0.000707
968.6729	0.000095
969.3987	0.000834
970.1245	0.000791
970.8504	0.000032
971.5763	0.000454
972.3023	0.000538
973.0284	0.001530
973.7545	0.001783
974.4807	0.001234
975.2070	0.000665
975.9333	-0.000981
976.6597	0.000517
977.3862	0.000644
978.1127	0.001023
978.8393	0.000158
979.5659	0.000749
980.2926	0.000011
981.0194	-0.000369
981.7462	-0.000834
982.4731	0.000369
983.2001	0.001023
983.9271	0.000137
984.6542	0.000939
985.3814	0.001234
986.1086	0.001910
986.8358	0.000728
987.5632	-0.001171
988.2906	0.000728
989.0180	-0.000454
989.7456	0.000306
990.4732	-0.001129
991.2008	0.000327
991.9285	0.000897
992.6563	0.000707
993.3841	-0.000179
994.1120	0.000517
994.8400	0.001868
995.5680	0.000348
996.2961	0.000390
997.0242	0.000770
997.7524	-0.000032
998.4807	-0.000243
999.2090	-0.000834
999.9374	-0.000411
1000.67	-0.000306
1001.39	0.000496
1002.12	-0.000264
1002.85	-0.000116
1003.58	-0.000454
1004.31	0.000116
1005.04	0.000960
1005.77	0.000243
1006.5	-0.000390
1007.22	-0.000580
1007.95	0.000053
1008.68	-0.000665
1009.41	0.001403
1010.14	-0.000264
1010.87	0.001910
1011.6	0.000876
1012.33	0.000623
1013.06	-0.000580
1013.79	0.000095
1014.52	-0.000876
1015.25	0.000728
1015.98	0.000939
1016.71	0.000770
1017.44	0.000222
1018.17	0.001403
1018.9	0.002479
1019.63	0.001234
1020.36	0.000749
1021.09	0.001509
1021.82	-0.001213
1022.55	-0.000749
1023.03	0.000559