File: Auto_Polymerization/Spectra/MRG-061-F-2_spectra_while_flow/spectrum_2025-06-19_10-31-58.txt
# Wavelength (nm)	Intensity (a.u.)
197.7802	0.002744
198.3922	0.001119
199.0044	0.001372
199.6168	0.000760
200.2292	-0.000844
200.8418	0.000696
201.4546	0.002174
202.0674	-0.000739
202.6805	0.000549
203.2936	-0.000950
203.9069	0.001498
204.5203	-0.000401
205.1338	0.000992
205.7475	0.001224
206.3614	-0.000359
206.9753	0.000886
207.5894	0.000612
208.2036	-0.000422
208.8180	-0.000063
209.4325	-0.000021
210.0471	0.000253
210.6618	-0.000021
211.2767	0.002659
211.8918	-0.001414
212.5069	0.000422
213.1222	0.001034
213.7376	0.001097
214.3532	0.000380
214.9689	0.001646
215.5847	0.000127
216.2007	0.000950
216.8168	0.000380
217.4330	0.001372
218.0494	-0.000739
218.6659	0.000633
219.2825	0.000654
219.8992	0.000295
220.5161	-0.000190
221.1332	0.001076
221.7503	-0.001161
222.3676	-0.000084
222.9850	0.000253
223.6026	0.001309
224.2203	0.000549
224.8381	0.000760
225.4561	0.000528
226.0742	0.001710
226.6924	0.001034
227.3107	0.000021
227.9292	-0.000422
228.5478	0.000169
229.1666	0.001351
229.7855	0.000971
230.4045	-0.000802
231.0236	0.001562
231.6429	0.000063
232.2623	0.001477
232.8818	0.000169
233.5015	0.001794
234.1213	-0.000570
234.7413	0.000169
235.3613	0.000380
235.9815	0.001520
236.6018	-0.000696
237.2223	-0.000359
237.8429	-0.000929
238.4636	0.000760
239.0845	-0.000464
239.7055	0.001287
240.3266	0.000063
240.9478	0.001414
241.5692	0.000844
242.1907	0.001963
242.8124	0.000042
243.4341	-0.000886
244.0560	0.000063
244.6781	0.001878
245.3002	-0.000612
245.9225	-0.000675
246.5449	0.000232
247.1675	0.000507
247.7902	0.001287
248.4130	0.000718
249.0359	-0.000971
249.6590	0.001287
250.2822	0.001414
250.9056	-0.000232
251.5290	0.000232
252.1526	0.001456
252.7763	0.001203
253.4002	0.001520
254.0242	0.001330
254.6483	0.000823
255.2725	0.001520
255.8969	-0.000232
256.5214	0.000992
257.1460	0.001330
257.7708	0.000190
258.3957	0.001815
259.0207	0.001287
259.6459	0.000232
260.2711	0.000253
260.8965	0.000865
261.5221	0.000359
262.1477	0.001752
262.7735	0.000148
263.3995	0.001224
264.0255	0.000127
264.6517	0.000338
265.2780	-0.000232
265.9044	0.001013
266.5310	-0.000422
267.1577	0.000718
267.7845	-0.000042
268.4114	0.000844
269.0385	-0.000148
269.6657	0.002174
270.2931	0.000612
270.9205	0.000591
271.5481	-0.000338
272.1758	0.001055
272.8037	0.000253
273.4316	0.000443
274.0597	-0.000696
274.6880	0.000886
275.3163	0.000443
275.9448	0.000295
276.5734	0.000000
277.2022	0.000485
277.8310	0.001266
278.4600	0.001435
279.0891	0.001562
279.7184	0.001013
280.3477	0.000084
280.9772	0.001287
281.6069	-0.000253
282.2366	0.000570
282.8665	0.000844
283.4965	0.000823
284.1266	-0.000063
284.7569	0.000971
285.3873	0.000844
286.0178	0.003313
286.6484	0.000401
287.2792	0.000295
287.9101	-0.000696
288.5411	0.002111
289.1723	0.000549
289.8035	0.002111
290.4349	-0.000148
291.0665	0.000908
291.6981	0.000359
292.3299	0.000971
292.9618	0.000317
293.5938	0.000232
294.2260	0.001055
294.8582	0.000612
295.4906	0.001161
296.1232	0.000570
296.7558	0.000823
297.3886	0.000591
298.0215	-0.000042
298.6545	0.001076
299.2877	0.000042
299.9210	0.000739
300.5544	-0.000127
301.1879	-0.000675
301.8215	0.000781
302.4553	0.001161
303.0892	0.000549
303.7233	0.000718
304.3574	-0.000232
304.9917	0.000528
305.6261	0.000823
306.2606	0.001372
306.8953	0.000528
307.5301	0.000908
308.1650	-0.000063
308.8000	0.000359
309.4351	-0.000021
310.0704	0.000760
310.7058	0.001351
311.3413	0.000865
311.9770	0.000380
312.6127	0.001836
313.2486	0.002279
313.8846	0.000169
314.5208	-0.000507
315.1570	-0.000148
315.7934	-0.000063
316.4299	0.000401
317.0666	0.000127
317.7033	0.001477
318.3402	-0.000190
318.9772	-0.000232
319.6143	0.000485
320.2516	0.001119
320.8890	-0.001752
321.5265	0.000042
322.1641	-0.000063
322.8018	0.000528
323.4397	0.000950
324.0777	0.000950
324.7158	0.000908
325.3540	0.001625
325.9924	-0.000823
326.6308	0.000760
327.2694	-0.001921
327.9082	0.000422
328.5470	-0.000106
329.1860	0.000485
329.8251	-0.000633
330.4643	0.002132
331.1036	-0.000106
331.7431	0.000401
332.3826	0.001119
333.0223	0.001625
333.6622	0.000127
334.3021	0.000232
334.9422	-0.000084
335.5823	0.000760
336.2227	-0.000127
336.8631	0.000633
337.5036	0.000380
338.1443	-0.001393
338.7851	-0.001097
339.4260	0.001055
340.0670	0.000274
340.7082	0.000274
341.3495	-0.000106
341.9909	0.000633
342.6324	0.000000
343.2740	0.000464
343.9158	-0.000401
344.5577	0.000295
345.1997	0.001393
345.8418	0.001182
346.4840	-0.000443
347.1264	0.000549
347.7689	-0.001393
348.4115	-0.000485
349.0542	0.000528
349.6971	0.001541
350.3400	-0.000169
350.9831	0.001899
351.6263	-0.001119
352.2696	0.000781
352.9131	-0.000570
353.5566	0.001414
354.2003	0.000696
354.8441	0.000760
355.4881	-0.001414
356.1321	0.000295
356.7763	0.002807
357.4206	-0.000274
358.0650	0.000253
358.7095	0.000528
359.3541	-0.000148
359.9989	0.000232
360.6438	0.000190
361.2888	0.001984
361.9339	0.000654
362.5791	0.001520
363.2245	-0.000148
363.8699	0.000148
364.5155	0.000232
365.1612	0.001076
365.8071	0.000021
366.4530	0.001752
367.0991	0.000992
367.7453	0.000865
368.3916	0.000211
369.0380	0.000295
369.6845	0.000802
370.3312	0.001372
370.9780	-0.000211
371.6249	0.001498
372.2719	-0.001140
372.9190	-0.000464
373.5663	-0.000063
374.2136	0.001182
374.8611	0.000380
375.5087	-0.000084
376.1564	0.000317
376.8043	0.000760
377.4522	0.000908
378.1003	0.000528
378.7485	-0.000422
379.3968	0.000802
380.0452	0.000422
380.6938	0.001351
381.3424	0.000654
381.9912	0.000169
382.6401	0.001161
383.2891	0.001921
383.9382	0.001182
384.5875	0.001287
385.2368	0.000612
385.8863	0.002723
386.5359	0.002026
387.1856	0.002364
387.8355	0.001182
388.4854	0.001921
389.1355	0.002153
389.7856	0.003271
390.4359	0.003461
391.0863	0.004749
391.7369	0.005867
392.3875	0.006859
393.0383	0.008737
393.6891	0.007788
394.3401	0.008463
394.9912	0.007978
395.6425	0.010468
396.2938	0.010574
396.9453	0.014351
397.5968	0.014689
398.2485	0.014119
398.9003	0.018024
399.5522	0.018973
400.2043	0.019290
400.8564	0.018699
401.5087	0.020261
402.1610	0.018657
402.8135	0.020810
403.4661	0.020366
404.1189	0.021759
404.7717	0.024208
405.4246	0.024777
406.0777	0.026170
406.7309	0.023363
407.3842	0.024820
408.0376	0.025389
408.6911	0.027648
409.3448	0.025305
409.9985	0.026825
410.6524	0.026107
411.3064	0.026402
411.9605	0.027078
412.6147	0.029188
413.2690	0.028787
413.9234	0.030856
414.5780	0.027838
415.2326	0.028661
415.8874	0.029927
416.5423	0.030159
417.1973	0.028893
417.8524	0.027605
418.5077	0.030349
419.1630	0.030687
419.8185	0.031890
420.4741	0.031088
421.1298	0.032755
421.7856	0.037820
422.4415	0.034570
423.0975	0.035393
423.7536	0.034739
424.4099	0.033578
425.0663	0.032924
425.7228	0.031995
426.3793	0.029610
427.0361	0.029484
427.6929	0.031531
428.3498	0.032692
429.0068	0.029821
429.6640	0.035541
430.3213	0.036491
430.9787	0.037314
431.6362	0.030602
432.2938	0.029231
432.9515	0.028070
433.6093	0.032291
434.2673	0.031130
434.9253	0.029906
435.5835	0.030433
436.2418	0.031003
436.9001	0.032312
437.5586	0.029885
438.2173	0.029336
438.8760	0.030244
439.5348	0.029568
440.1938	0.029927
440.8528	0.031573
441.5120	0.037504
442.1713	0.032565
442.8307	0.031911
443.4902	0.032122
444.1498	0.033494
444.8095	0.030539
445.4694	0.032713
446.1293	0.030265
446.7894	0.032227
447.4496	0.028450
448.1098	0.029948
448.7702	0.026360
449.4307	0.029273
450.0914	0.027985
450.7521	0.026107
451.4129	0.024292
452.0739	0.023194
452.7349	0.023680
453.3961	0.022456
454.0574	0.022498
454.7188	0.020198
455.3803	0.021590
456.0419	0.021253
456.7036	0.021337
457.3654	0.020662
458.0274	0.021717
458.6894	0.020788
459.3516	0.021738
460.0138	0.019986
460.6762	0.019142
461.3387	0.018572
462.0013	0.017876
462.6640	0.017581
463.3268	0.016166
463.9897	0.018024
464.6528	0.018298
465.3159	0.018361
465.9792	0.017834
466.6425	0.016462
467.3060	0.015829
467.9696	0.014900
468.6333	0.012558
469.2970	0.014351
469.9610	0.012769
470.6250	0.012410
471.2891	0.010489
471.9533	0.009582
472.6177	0.010996
473.2821	0.011249
473.9467	0.011566
474.6113	0.010848
475.2761	0.009350
475.9410	0.009962
476.6060	0.008843
477.2711	0.007387
477.9363	0.009160
478.6016	0.006543
479.2670	0.007513
479.9325	0.006374
480.5982	0.008695
481.2639	0.007387
481.9298	0.007556
482.5957	0.007535
483.2618	0.007535
483.9280	0.007155
484.5943	0.007176
485.2606	0.005656
485.9271	0.019839
486.5937	0.015702
487.2605	0.013022
487.9273	0.006922
488.5942	0.006838
489.2612	0.005508
489.9284	0.005909
490.5956	0.005656
491.2630	0.004749
491.9304	0.004981
492.5980	0.005909
493.2657	0.005361
493.9334	0.004305
494.6013	0.004137
495.2693	0.004495
495.9374	0.004242
496.6056	0.004390
497.2739	0.003693
497.9423	0.003778
498.6109	0.003588
499.2795	0.004137
499.9482	0.003693
500.6171	0.004031
501.2860	0.003841
501.9551	0.001076
502.6242	0.004327
503.2935	0.004284
503.9628	0.002596
504.6323	0.003757
505.3019	0.002680
505.9716	0.002216
506.6414	0.004010
507.3113	0.001899
507.9813	0.003166
508.6514	0.003018
509.3216	0.003187
509.9919	0.004327
510.6623	0.001710
511.3329	0.004664
512.0035	0.003820
512.6742	0.003588
513.3451	0.004706
514.0160	0.004833
514.6871	0.004158
515.3582	0.003736
516.0295	0.002891
516.7008	0.002934
517.3723	0.004369
518.0439	0.003904
518.7155	0.003482
519.3873	0.003567
520.0592	0.003292
520.7312	0.004939
521.4033	0.003313
522.0755	0.002385
522.7478	0.003145
523.4202	0.003145
524.0927	0.004179
524.7653	0.003651
525.4380	0.005129
526.1108	0.004580
526.7837	0.005466
527.4568	0.004791
528.1299	0.004221
528.8031	0.005614
529.4765	0.005150
530.1499	0.005318
530.8234	0.004411
531.4971	0.005762
532.1708	0.005361
532.8447	0.006627
533.5186	0.006585
534.1927	0.008632
534.8668	0.007302
535.5411	0.008083
536.2155	0.007893
536.8899	0.008062
537.5645	0.009603
538.2392	0.009075
538.9139	0.009202
539.5888	0.009708
540.2638	0.010004
540.9389	0.009940
541.6140	0.012431
542.2893	0.011650
542.9647	0.014520
543.6402	0.012093
544.3158	0.014710
544.9915	0.013782
545.6673	0.016166
546.3432	0.014710
547.0192	0.015934
547.6953	0.016019
548.3715	0.020514
549.0478	0.017939
549.7242	0.018636
550.4007	0.019353
551.0773	0.017180
551.7540	0.018003
552.4308	0.023279
553.1077	0.023194
553.7847	0.024988
554.4618	0.023912
555.1390	0.020831
555.8163	0.023764
556.4937	0.028217
557.1712	0.027373
557.8488	0.025811
558.5266	0.025199
559.2044	0.026445
559.8823	0.027057
560.5603	0.030370
561.2384	0.035372
561.9166	0.034380
562.5949	0.031594
563.2733	0.036343
563.9519	0.038369
564.6305	0.039087
565.3092	0.040416
565.9880	0.041281
566.6669	0.042970
567.3459	0.051602
568.0250	0.056456
568.7043	0.067156
569.3836	0.080241
570.0630	0.104322
570.7425	0.105821
571.4221	0.124646
572.1018	0.142016
572.7816	0.119602
573.4615	0.141341
574.1415	0.161264
574.8216	0.172323
575.5018	0.177071
576.1821	0.155882
576.8626	0.181208
577.5431	0.196826
578.2237	0.243552
578.9044	0.206787
579.5851	0.207421
580.2660	0.210270
580.9470	0.206619
581.6281	0.322654
582.3093	0.312756
582.9906	0.243742
583.6720	0.205416
584.3535	0.201680
585.0351	0.228293
585.7167	0.243130
586.3985	0.206808
587.0804	0.215652
587.7624	0.232219
588.4445	0.203833
589.1266	0.179477
589.8089	0.166624
590.4913	0.150817
591.1737	0.132139
591.8563	0.133342
592.5389	0.156642
593.2217	0.206513
593.9046	0.195285
594.5875	0.173737
595.2705	0.200013
595.9537	0.177873
596.6369	0.142058
597.3203	0.155038
598.0037	0.146933
598.6872	0.159385
599.3709	0.184796
600.0546	0.184564
600.7384	0.181799
601.4223	0.191170
602.1064	0.169052
602.7905	0.171352
603.4747	0.189270
604.1590	0.177641
604.8434	0.157275
605.5279	0.162826
606.2125	0.177135
606.8972	0.158858
607.5819	0.161644
608.2668	0.154320
608.9518	0.146701
609.6369	0.137288
610.3220	0.156009
611.0073	0.143219
611.6927	0.138745
612.3781	0.129057
613.0637	0.131379
613.7493	0.126841
614.4351	0.129121
615.1209	0.127833
615.8068	0.131928
616.4929	0.115909
617.1790	0.109810
617.8652	0.112152
618.5515	0.101832
619.2379	0.091406
619.9244	0.095479
620.6110	0.096978
621.2977	0.075303
621.9845	0.081276
622.6714	0.084061
623.3584	0.090372
624.0454	0.085898
624.7326	0.092208
625.4199	0.084146
626.1072	0.079629
626.7947	0.072158
627.4822	0.071230
628.1698	0.066713
628.8576	0.057765
629.5454	0.065595
630.2333	0.061247
630.9213	0.054747
631.6094	0.052277
632.2976	0.054557
632.9859	0.046663
633.6743	0.045355
634.3628	0.043856
635.0514	0.041028
635.7400	0.042907
636.4288	0.045946
637.1177	0.042463
637.8066	0.042759
638.4957	0.042970
639.1848	0.041704
639.8740	0.039177
640.5633	0.035763
641.2528	0.034540
641.9423	0.031052
642.6319	0.030460
643.3216	0.029510
644.0113	0.032414
644.7012	0.026756
645.3912	0.027788
646.0812	0.027898
646.7714	0.025551
647.4616	0.025941
648.1520	0.030252
648.8424	0.031007
649.5329	0.036716
650.2236	0.031451
650.9143	0.030464
651.6051	0.030412
652.2960	0.030161
652.9870	0.032833
653.6780	0.033250
654.3692	0.034936
655.0605	0.065843
655.7518	0.965394
656.4433	1.000000
657.1348	0.874157
657.8264	0.543829
658.5181	0.414555
659.2099	0.332811
659.9018	0.099597
660.5938	0.031470
661.2859	0.024705
661.9781	0.023432
662.6704	0.023033
663.3627	0.020201
664.0552	0.021509
664.7477	0.023779
665.4403	0.023727
666.1330	0.025509
666.8259	0.024482
667.5188	0.022498
668.2117	0.021207
668.9048	0.023321
669.5980	0.020155
670.2913	0.021907
670.9846	0.023300
671.6781	0.027394
672.3716	0.034021
673.0652	0.033705
673.7589	0.029737
674.4527	0.030244
675.1466	0.026044
675.8406	0.025221
676.5347	0.027057
677.2288	0.023532
677.9231	0.028513
678.6174	0.029800
679.3119	0.031235
680.0064	0.036301
680.7010	0.032882
681.3957	0.036237
682.0905	0.035224
682.7854	0.030117
683.4803	0.030307
684.1754	0.034042
684.8705	0.039213
685.5658	0.044933
686.2611	0.046051
686.9565	0.043244
687.6520	0.043181
688.3476	0.041408
689.0433	0.033747
689.7390	0.036364
690.4349	0.033663
691.1308	0.036807
691.8269	0.036406
692.5230	0.037588
693.2192	0.038095
693.9155	0.037862
694.6119	0.032882
695.3083	0.036871
696.0049	0.031700
696.7016	0.036406
697.3983	0.038010
698.0951	0.039656
698.7920	0.036491
699.4890	0.036786
700.1861	0.032396
700.8833	0.032354
701.5806	0.027120
702.2779	0.030433
702.9753	0.031848
703.6729	0.028745
704.3705	0.029568
705.0682	0.027310
705.7660	0.021316
706.4638	0.031067
707.1618	0.035478
707.8599	0.037440
708.5580	0.036575
709.2562	0.033937
709.9545	0.035625
710.6529	0.034106
711.3514	0.032523
712.0500	0.029610
712.7486	0.030391
713.4474	0.030497
714.1462	0.035203
714.8451	0.035984
715.5441	0.034507
716.2432	0.029674
716.9424	0.030244
717.6416	0.027584
718.3410	0.031172
719.0404	0.028808
719.7399	0.031742
720.4395	0.028006
721.1392	0.028808
721.8390	0.030349
722.5388	0.027774
723.2388	0.026445
723.9388	0.028724
724.6389	0.027078
725.3391	0.031805
726.0394	0.031869
726.7398	0.033156
727.4403	0.032037
728.1408	0.034042
728.8414	0.035731
729.5421	0.038010
730.2429	0.033874
730.9438	0.042611
731.6448	0.041471
732.3458	0.038580
733.0470	0.043097
733.7482	0.045123
734.4495	0.050336
735.1509	0.046790
735.8524	0.047930
736.5539	0.048689
737.2556	0.050336
737.9573	0.044278
738.6591	0.041134
739.3610	0.046347
740.0630	0.045946
740.7651	0.037736
741.4672	0.033789
742.1695	0.034000
742.8718	0.033367
743.5742	0.030265
744.2767	0.029653
744.9792	0.030581
745.6819	0.029315
746.3846	0.027437
747.0874	0.030201
747.7903	0.031932
748.4933	0.027542
749.1964	0.029885
749.8995	0.035414
750.6028	0.040881
751.3061	0.039509
752.0095	0.040627
752.7130	0.037968
753.4166	0.039340
754.1202	0.041387
754.8239	0.040311
755.5278	0.041493
756.2317	0.045925
756.9356	0.052910
757.6397	0.061247
758.3438	0.056920
759.0481	0.054388
759.7524	0.059685
760.4568	0.062429
761.1613	0.061479
761.8658	0.052868
762.5705	0.049301
763.2752	0.050589
763.9800	0.050504
764.6849	0.056604
765.3898	0.056414
766.0949	0.049365
766.8000	0.043709
767.5052	0.037567
768.2105	0.044764
768.9159	0.049006
769.6214	0.045840
770.3269	0.044447
771.0325	0.046853
771.7382	0.043835
772.4440	0.041535
773.1499	0.039720
773.8558	0.039044
774.5618	0.034317
775.2679	0.031489
775.9741	0.026761
776.6804	0.025073
777.3868	0.025115
778.0932	0.024904
778.7997	0.029420
779.5063	0.030645
780.2130	0.028956
780.9197	0.030919
781.6265	0.036132
782.3335	0.032460
783.0405	0.033916
783.7475	0.034633
784.4547	0.030961
785.1619	0.029505
785.8692	0.030054
786.5766	0.030096
787.2841	0.029231
787.9917	0.030011
788.6993	0.031658
789.4070	0.031700
790.1148	0.027521
790.8227	0.024123
791.5306	0.025221
792.2387	0.023279
792.9468	0.021802
793.6550	0.023638
794.3632	0.030307
795.0716	0.032565
795.7800	0.028302
796.4885	0.024018
797.1971	0.021379
797.9058	0.025031
798.6145	0.023912
799.3233	0.024144
800.0322	0.019501
800.7412	0.020092
801.4503	0.017391
802.1594	0.018551
802.8686	0.015850
803.5779	0.018277
804.2873	0.017032
804.9968	0.017749
805.7063	0.017855
806.4159	0.022498
807.1256	0.023511
807.8354	0.022371
808.5452	0.023785
809.2551	0.020725
809.9651	0.019206
810.6752	0.019037
811.3853	0.019775
812.0956	0.017348
812.8059	0.014541
813.5163	0.016293
814.2267	0.020345
814.9373	0.019290
815.6479	0.015702
816.3586	0.013929
817.0694	0.013782
817.7802	0.014246
818.4912	0.013338
819.2022	0.012431
819.9133	0.011840
820.6244	0.014584
821.3357	0.017918
822.0470	0.015702
822.7584	0.013782
823.4698	0.012157
824.1814	0.013317
824.8930	0.011756
825.6047	0.012473
826.3165	0.014246
827.0283	0.014140
827.7402	0.014161
828.4522	0.010869
829.1643	0.012262
829.8765	0.012346
830.5887	0.010341
831.3010	0.009054
832.0134	0.008358
832.7259	0.009645
833.4384	0.009117
834.1510	0.009708
834.8637	0.010320
835.5765	0.010553
836.2893	0.009708
837.0022	0.008294
837.7152	0.007155
838.4283	0.007577
839.1414	0.007682
839.8546	0.009645
840.5679	0.004981
841.2813	0.006606
841.9947	0.006754
842.7082	0.005614
843.4218	0.006036
844.1355	0.007028
844.8492	0.005593
845.5631	0.006184
846.2770	0.003968
846.9909	0.004896
847.7050	0.006163
848.4191	0.005635
849.1333	0.004812
849.8475	0.005593
850.5619	0.004939
851.2763	0.003904
851.9908	0.005656
852.7053	0.008020
853.4200	0.015132
854.1347	0.013338
854.8495	0.014731
855.5643	0.012937
856.2792	0.011017
856.9942	0.012600
857.7093	0.010278
858.4245	0.008906
859.1397	0.008864
859.8550	0.007851
860.5704	0.006289
861.2858	0.006922
862.0013	0.006437
862.7169	0.006521
863.4326	0.006859
864.1483	0.007429
864.8642	0.005719
865.5800	0.007513
866.2960	0.005297
867.0120	0.006015
867.7281	0.006057
868.4443	0.006057
869.1606	0.004685
869.8769	0.005213
870.5933	0.007028
871.3097	0.007007
872.0263	0.004749
872.7429	0.005508
873.4596	0.004411
874.1763	0.004685
874.8932	0.003588
875.6101	0.006015
876.3270	0.005867
877.0441	0.005023
877.7612	0.006374
878.4784	0.005656
879.1957	0.008062
879.9130	0.007788
880.6304	0.007112
881.3479	0.007218
882.0654	0.006078
882.7831	0.004643
883.5007	0.007577
884.2185	0.006036
884.9363	0.006289
885.6542	0.005867
886.3722	0.007049
887.0903	0.005340
887.8084	0.005255
888.5266	0.005846
889.2448	0.006437
889.9632	0.004812
890.6816	0.005192
891.4001	0.005171
892.1186	0.006416
892.8372	0.005508
893.5559	0.005677
894.2747	0.005044
894.9935	0.005698
895.7124	0.003609
896.4314	0.004875
897.1504	0.004221
897.8695	0.007513
898.5887	0.004348
899.3079	0.004538
900.0272	0.003883
900.7466	0.002786
901.4661	0.003672
902.1856	0.006775
902.9052	0.004706
903.6249	0.004706
904.3446	0.004411
905.0644	0.005846
905.7843	0.005213
906.5043	0.005129
907.2243	0.003039
907.9444	0.005129
908.6645	0.004327
909.3847	0.004073
910.1050	0.003398
910.8254	0.003926
911.5458	0.005551
912.2663	0.005002
912.9869	0.005150
913.7075	0.003356
914.4283	0.003482
915.1490	0.002237
915.8699	0.004179
916.5908	0.004348
917.3118	0.004474
918.0328	0.004179
918.7539	0.004622
919.4751	0.004495
920.1964	0.004327
920.9177	0.003292
921.6391	0.003208
922.3606	0.003166
923.0821	0.002047
923.8037	0.003672
924.5254	0.003124
925.2471	0.003377
925.9689	0.001520
926.6908	0.003609
927.4127	0.002997
928.1347	0.002385
928.8568	0.002469
929.5789	0.002828
930.3011	0.002385
931.0234	0.004010
931.7457	0.002237
932.4681	0.001857
933.1906	0.002828
933.9131	0.001878
934.6358	0.002912
935.3584	0.002132
936.0812	0.001688
936.8040	0.001878
937.5269	0.002385
938.2498	0.001520
938.9728	0.001836
939.6959	0.002701
940.4190	0.002132
941.1422	0.000718
941.8655	0.002807
942.5889	0.001541
943.3123	-0.000591
944.0357	0.001752
944.7593	0.002005
945.4829	0.002005
946.2066	0.002490
946.9303	0.001119
947.6541	-0.000274
948.3780	0.001372
949.1019	0.001287
949.8259	0.001899
950.5500	0.001604
951.2741	-0.000549
951.9983	0.002490
952.7226	0.000127
953.4469	0.001477
954.1713	0.002132
954.8958	0.001667
955.6203	0.001414
956.3449	0.002174
957.0696	0.002132
957.7943	-0.000232
958.5191	-0.000084
959.2439	0.001857
959.9688	0.001076
960.6938	0.000570
961.4189	0.000886
962.1440	0.001203
962.8692	0.001625
963.5944	0.000253
964.3197	0.000464
965.0451	0.001625
965.7705	0.000654
966.4960	0.000295
967.2216	0.000950
967.9472	0.000781
968.6729	0.000338
969.3987	0.002005
970.1245	-0.000359
970.8504	0.001013
971.5763	0.002364
972.3023	0.001477
973.0284	-0.000063
973.7545	0.001393
974.4807	0.001984
975.2070	0.000338
975.9333	0.000106
976.6597	0.001287
977.3862	-0.000232
978.1127	0.000971
978.8393	0.000253
979.5659	0.000760
980.2926	0.000612
981.0194	0.001013
981.7462	0.000908
982.4731	-0.001182
983.2001	0.000211
983.9271	0.000612
984.6542	0.001182
985.3814	0.001583
986.1086	-0.000443
986.8358	0.000823
987.5632	0.001013
988.2906	0.000781
989.0180	0.000359
989.7456	-0.000063
990.4732	0.001140
991.2008	0.001498
991.9285	0.001203
992.6563	0.000063
993.3841	0.001393
994.1120	0.000760
994.8400	0.000654
995.5680	-0.000190
996.2961	-0.000190
997.0242	0.000886
997.7524	0.000211
998.4807	0.001498
999.2090	0.001140
999.9374	0.001224
1000.67	-0.000612
1001.39	-0.000148
1002.12	0.001097
1002.85	0.000127
1003.58	0.000823
1004.31	0.001224
1005.04	0.000823
1005.77	0.000443
1006.5	0.000696
1007.22	0.000401
1007.95	-0.000084
1008.68	0.000274
1009.41	-0.000696
1010.14	0.001119
1010.87	0.001477
1011.6	0.000570
1012.33	0.000274
1013.06	0.000338
1013.79	0.001562
1014.52	0.000823
1015.25	-0.000696
1015.98	0.000127
1016.71	0.000760
1017.44	0.001224
1018.17	0.000021
1018.9	-0.000148
1019.63	-0.000127
1020.36	-0.000633
1021.09	0.000232
1021.82	-0.001203
1022.55	0.001182
1023.03	0.000528