File: Auto_Polymerization/Spectra/MRG-061-F-2_spectra_while_flow/spectrum_2025-06-19_10-16-38.txt
# Wavelength (nm)	Intensity (a.u.)
197.7802	0.000980
198.3922	-0.001300
199.0044	0.000473
199.6168	0.000325
200.2292	0.000178
200.8418	0.001528
201.4546	-0.000540
202.0674	0.000368
202.6805	0.001697
203.2936	-0.000941
203.9069	0.001022
204.5203	-0.000540
205.1338	0.000621
205.7475	-0.000033
206.3614	0.001549
206.9753	-0.001215
207.5894	0.000325
208.2036	-0.000033
208.8180	0.002288
209.4325	0.000431
210.0471	0.000747
210.6618	-0.000667
211.2767	-0.000413
211.8918	0.000114
212.5069	0.000304
213.1222	-0.000835
213.7376	0.000368
214.3532	-0.001046
214.9689	0.000811
215.5847	-0.000266
216.2007	0.000790
216.8168	0.000325
217.4330	0.001486
218.0494	0.000241
218.6659	0.001739
219.2825	-0.000223
219.8992	0.000157
220.5161	0.001486
221.1332	0.000853
221.7503	0.001106
222.3676	0.000811
222.9850	0.000895
223.6026	-0.000308
224.2203	0.001950
224.8381	0.000895
225.4561	-0.000498
226.0742	0.000051
226.6924	0.000473
227.3107	0.001148
227.9292	-0.000434
228.5478	0.000579
229.1666	0.001676
229.7855	0.000304
230.4045	0.000452
231.0236	0.000431
231.6429	0.000368
232.2623	0.001254
232.8818	0.000494
233.5015	-0.000097
234.1213	-0.000244
234.7413	0.001296
235.3613	-0.001279
235.9815	0.001381
236.6018	0.000600
237.2223	0.000600
237.8429	0.000178
238.4636	0.000157
239.0845	-0.000455
239.7055	0.001169
240.3266	-0.000266
240.9478	0.000304
241.5692	0.000051
242.1907	-0.000371
242.8124	0.000790
243.4341	-0.001279
244.0560	0.001022
244.6781	0.001233
245.3002	0.000452
245.9225	0.000705
246.5449	0.001634
247.1675	0.000220
247.7902	0.000262
248.4130	0.000811
249.0359	-0.000477
249.6590	0.000325
250.2822	0.000114
250.9056	0.001106
251.5290	-0.000455
252.1526	0.001275
252.7763	-0.000413
253.4002	0.001127
254.0242	0.000262
254.6483	-0.000308
255.2725	-0.000561
255.8969	0.000199
256.5214	-0.000519
257.1460	0.000009
257.7708	0.001486
258.3957	0.001148
259.0207	0.000389
259.6459	-0.000920
260.2711	0.000389
260.8965	0.000916
261.5221	-0.001152
262.1477	0.001993
262.7735	0.001191
263.3995	0.002351
264.0255	-0.000455
264.6517	0.001718
265.2780	0.000410
265.9044	0.000452
266.5310	0.000515
267.1577	0.001233
267.7845	-0.000667
268.4114	-0.000624
269.0385	-0.000667
269.6657	0.001634
270.2931	0.000241
270.9205	0.000093
271.5481	0.000600
272.1758	-0.000244
272.8037	0.000557
273.4316	0.000283
274.0597	0.001148
274.6880	0.000346
275.3163	-0.000582
275.9448	0.002182
276.5734	-0.000519
277.2022	0.000557
277.8310	-0.000709
278.4600	-0.000983
279.0891	0.000220
279.7184	0.002520
280.3477	0.000072
280.9772	0.001423
281.6069	0.001233
282.2366	0.000621
282.8665	0.001254
283.4965	0.002288
284.1266	-0.001321
284.7569	-0.000413
285.3873	0.000769
286.0178	0.000853
286.6484	0.000874
287.2792	0.000937
287.9101	0.000431
288.5411	0.001718
289.1723	-0.000645
289.8035	0.001064
290.4349	-0.000223
291.0665	0.000368
291.6981	0.000621
292.3299	0.000283
292.9618	0.000199
293.5938	0.000325
294.2260	0.000262
294.8582	0.001191
295.4906	-0.001046
296.1232	0.001212
296.7558	0.000452
297.3886	0.000937
298.0215	-0.000160
298.6545	0.000220
299.2877	0.000557
299.9210	0.000895
300.5544	-0.000920
301.1879	0.001254
301.8215	0.000452
302.4553	-0.000223
303.0892	-0.000160
303.7233	0.000600
304.3574	0.000937
304.9917	0.001549
305.6261	0.001528
306.2606	0.001739
306.8953	0.000853
307.5301	0.001507
308.1650	0.000410
308.8000	0.000937
309.4351	-0.001152
310.0704	0.001233
310.7058	0.000853
311.3413	0.000769
311.9770	0.000157
312.6127	0.000283
313.2486	0.000557
313.8846	0.001338
314.5208	0.000811
315.1570	-0.000097
315.7934	0.001085
316.4299	0.001465
317.0666	0.000832
317.7033	0.001022
318.3402	-0.000434
318.9772	0.001148
319.6143	0.000030
320.2516	0.000114
320.8890	-0.001405
321.5265	0.002372
322.1641	0.000178
322.8018	0.001866
323.4397	0.000093
324.0777	-0.000076
324.7158	0.000726
325.3540	0.000030
325.9924	0.000051
326.6308	0.000747
327.2694	-0.000434
327.9082	0.001275
328.5470	0.000220
329.1860	0.001254
329.8251	0.001085
330.4643	0.001233
331.1036	-0.000033
331.7431	0.000262
332.3826	-0.000244
333.0223	0.000642
333.6622	0.000093
334.3021	0.001613
334.9422	0.000473
335.5823	0.001655
336.2227	0.000093
336.8631	0.001528
337.5036	0.000811
338.1443	0.000283
338.7851	0.001001
339.4260	0.000494
340.0670	0.000220
340.7082	0.000431
341.3495	-0.000202
341.9909	0.001127
342.6324	0.001106
343.2740	0.000579
343.9158	0.001127
344.5577	0.000157
345.1997	0.000220
345.8418	0.001486
346.4840	0.000178
347.1264	0.002077
347.7689	0.001212
348.4115	0.000600
349.0542	-0.000434
349.6971	0.001486
350.3400	0.002351
350.9831	0.001233
351.6263	0.001317
352.2696	0.001043
352.9131	0.000790
353.5566	0.000642
354.2003	0.000368
354.8441	0.001001
355.4881	0.000642
356.1321	0.000515
356.7763	0.000473
357.4206	-0.000266
358.0650	0.000557
358.7095	0.000663
359.3541	0.001212
359.9989	0.000895
360.6438	0.001338
361.2888	0.000895
361.9339	-0.000561
362.5791	0.001106
363.2245	0.000431
363.8699	0.001402
364.5155	0.001444
365.1612	0.002246
365.8071	0.000726
366.4530	-0.001152
367.0991	0.001022
367.7453	0.001739
368.3916	0.000304
369.0380	0.001929
369.6845	0.000642
370.3312	0.001233
370.9780	-0.000308
371.6249	-0.000582
372.2719	0.000726
372.9190	0.001866
373.5663	-0.000329
374.2136	-0.000582
374.8611	-0.000455
375.5087	-0.000181
376.1564	-0.000709
376.8043	0.000009
377.4522	0.000009
378.1003	0.000663
378.7485	0.000494
379.3968	-0.001067
380.0452	0.001106
380.6938	0.001634
381.3424	-0.001764
381.9912	-0.000033
382.6401	0.001148
383.2891	0.001043
383.9382	-0.000055
384.5875	0.000325
385.2368	0.000747
385.8863	0.001444
386.5359	0.001106
387.1856	0.001212
387.8355	0.002267
388.4854	0.002499
389.1355	0.002330
389.7856	0.003533
390.4359	0.003491
391.0863	0.003660
391.7369	0.005264
392.3875	0.006614
393.0383	0.005939
393.6891	0.009611
394.3401	0.009611
394.9912	0.010603
395.6425	0.011046
396.2938	0.011658
396.9453	0.013009
397.5968	0.015879
398.2485	0.016617
398.9003	0.018031
399.5522	0.019086
400.2043	0.017060
400.8564	0.019614
401.5087	0.021112
402.1610	0.021661
402.8135	0.022210
403.4661	0.020796
404.1189	0.024447
404.7717	0.024658
405.4246	0.025417
406.0777	0.025375
406.7309	0.026620
407.3842	0.025818
408.0376	0.024700
408.6911	0.026409
409.3448	0.026641
409.9985	0.026916
410.6524	0.027549
411.3064	0.026684
411.9605	0.027612
412.6147	0.029406
413.2690	0.029828
413.9234	0.028963
414.5780	0.029111
415.2326	0.029279
415.8874	0.028667
416.5423	0.029976
417.1973	0.028055
417.8524	0.028836
418.5077	0.030335
419.1630	0.030525
419.8185	0.029638
420.4741	0.031981
421.1298	0.033627
421.7856	0.035927
422.4415	0.038333
423.0975	0.035020
423.7536	0.032403
424.4099	0.034302
425.0663	0.033141
425.7228	0.032550
426.3793	0.030250
427.0361	0.031537
427.6929	0.031622
428.3498	0.030313
429.0068	0.031010
429.6640	0.036623
430.3213	0.037489
430.9787	0.035589
431.6362	0.032508
432.2938	0.031052
432.9515	0.027718
433.6093	0.032403
434.2673	0.030588
434.9253	0.029934
435.5835	0.030461
436.2418	0.031643
436.9001	0.032445
437.5586	0.033880
438.2173	0.032508
438.8760	0.029680
439.5348	0.030102
440.1938	0.029596
440.8528	0.030693
441.5120	0.035674
442.1713	0.035442
442.8307	0.033542
443.4902	0.031706
444.1498	0.032255
444.8095	0.033922
445.4694	0.029385
446.1293	0.030588
446.7894	0.031326
447.4496	0.029469
448.1098	0.030166
448.7702	0.028119
449.4307	0.027676
450.0914	0.027486
450.7521	0.026684
451.4129	0.025439
452.0739	0.025776
452.7349	0.022083
453.3961	0.022252
454.0574	0.023792
454.7188	0.019994
455.3803	0.022758
456.0419	0.022252
456.7036	0.019551
457.3654	0.021999
458.0274	0.020416
458.6894	0.020268
459.3516	0.022526
460.0138	0.021893
460.6762	0.020353
461.3387	0.019424
462.0013	0.018728
462.6640	0.018284
463.3268	0.014845
463.9897	0.017883
464.6528	0.017187
465.3159	0.017229
465.9792	0.018685
466.6425	0.015457
467.3060	0.014992
467.9696	0.013114
468.6333	0.013051
469.2970	0.013262
469.9610	0.010328
470.6250	0.011679
471.2891	0.011004
471.9533	0.009442
472.6177	0.009231
473.2821	0.010518
473.9467	0.010940
474.6113	0.008936
475.2761	0.010096
475.9410	0.008957
476.6060	0.008914
477.2711	0.008957
477.9363	0.008197
478.6016	0.007859
479.2670	0.007332
479.9325	0.007353
480.5982	0.008556
481.2639	0.007585
481.9298	0.008577
482.5957	0.007163
483.2618	0.006551
483.9280	0.006340
484.5943	0.006234
485.2606	0.007015
485.9271	0.019213
486.5937	0.013642
487.2605	0.012671
487.9273	0.005749
488.5942	0.004842
489.2612	0.004694
489.9284	0.005200
490.5956	0.004842
491.2630	0.006298
491.9304	0.005496
492.5980	0.004968
493.2657	0.005559
493.9334	0.003807
494.6013	0.005264
495.2693	0.004208
495.9374	0.005264
496.6056	0.005116
497.2739	0.003428
497.9423	0.003428
498.6109	0.003343
499.2795	0.003723
499.9482	0.004673
500.6171	0.004293
501.2860	0.004441
501.9551	0.002837
502.6242	0.003744
503.2935	0.004652
503.9628	0.002963
504.6323	0.003829
505.3019	0.003027
505.9716	0.003512
506.6414	0.003976
507.3113	0.003744
507.9813	0.002415
508.6514	0.004251
509.3216	0.002499
509.9919	0.002794
510.6623	0.002626
511.3329	0.004103
512.0035	0.001655
512.6742	0.002541
513.3451	0.004018
514.0160	0.004419
514.6871	0.002415
515.3582	0.004040
516.0295	0.005031
516.7008	0.004694
517.3723	0.002900
518.0439	0.003132
518.7155	0.003807
519.3873	0.004251
520.0592	0.003280
520.7312	0.003470
521.4033	0.003343
522.0755	0.002520
522.7478	0.003533
523.4202	0.003723
524.0927	0.003554
524.7653	0.005095
525.4380	0.004208
526.1108	0.004377
526.7837	0.004356
527.4568	0.003913
528.1299	0.006509
528.8031	0.005432
529.4765	0.005200
530.1499	0.003744
530.8234	0.005686
531.4971	0.004082
532.1708	0.006002
532.8447	0.007627
533.5186	0.005833
534.1927	0.007522
534.8668	0.008535
535.5411	0.008113
536.2155	0.007944
536.8899	0.008345
537.5645	0.007733
538.2392	0.008788
538.9139	0.009970
539.5888	0.011552
540.2638	0.009885
540.9389	0.010962
541.6140	0.011384
542.2893	0.012587
542.9647	0.011932
543.6402	0.014507
544.3158	0.013030
544.9915	0.014233
545.6673	0.014106
546.3432	0.014908
547.0192	0.016533
547.6953	0.017905
548.3715	0.021956
549.0478	0.020395
549.7242	0.018052
550.4007	0.019086
551.0773	0.020184
551.7540	0.019530
552.4308	0.023265
553.1077	0.022991
553.7847	0.024721
554.4618	0.025565
555.1390	0.023814
555.8163	0.026494
556.4937	0.027021
557.1712	0.025586
557.8488	0.026874
558.5266	0.027085
559.2044	0.025755
559.8823	0.028625
560.5603	0.032909
561.2384	0.037172
561.9166	0.034640
562.5949	0.034218
563.2733	0.035294
563.9519	0.040190
564.6305	0.040021
565.3092	0.042554
565.9880	0.042131
566.6669	0.044727
567.3459	0.053232
568.0250	0.054477
568.7043	0.068891
569.3836	0.075749
570.0630	0.104872
570.7425	0.108101
571.4221	0.123802
572.1018	0.144083
572.7816	0.124499
573.4615	0.143344
574.1415	0.162316
574.8216	0.174324
575.5018	0.177089
576.1821	0.162316
576.8626	0.185678
577.5431	0.198593
578.2237	0.241876
578.9044	0.205093
579.5851	0.203806
580.2660	0.214547
580.9470	0.208195
581.6281	0.327810
582.3093	0.311560
582.9906	0.245485
583.6720	0.199395
584.3535	0.201611
585.0351	0.227020
585.7167	0.240927
586.3985	0.208491
587.0804	0.214505
587.7624	0.230248
588.4445	0.205030
589.1266	0.182048
589.8089	0.168457
590.4913	0.149401
591.1737	0.135620
591.8563	0.135747
592.5389	0.157526
593.2217	0.207393
593.9046	0.194921
594.5875	0.174324
595.2705	0.200746
595.9537	0.173374
596.6369	0.146214
597.3203	0.149654
598.0037	0.145032
598.6872	0.160311
599.3709	0.186480
600.0546	0.185994
600.7384	0.185467
601.4223	0.182660
602.1064	0.172108
602.7905	0.176223
603.4747	0.193950
604.1590	0.175168
604.8434	0.157990
605.5279	0.166368
606.2125	0.174683
606.8972	0.157821
607.5819	0.164047
608.2668	0.153136
608.9518	0.146552
609.6369	0.132307
610.3220	0.156386
611.0073	0.141550
611.6927	0.139799
612.3781	0.130492
613.0637	0.133278
613.7493	0.129310
614.4351	0.133003
615.1209	0.127727
615.8068	0.132370
616.4929	0.116247
617.1790	0.112702
617.8652	0.110992
618.5515	0.103606
619.2379	0.091028
619.9244	0.098035
620.6110	0.098267
621.2977	0.075222
621.9845	0.084655
622.6714	0.081806
623.3584	0.089382
624.0454	0.086892
624.7326	0.093054
625.4199	0.086153
626.1072	0.078261
626.7947	0.072732
627.4822	0.070642
628.1698	0.065915
628.8576	0.058550
629.5454	0.062370
630.2333	0.061821
630.9213	0.055870
631.6094	0.053316
632.2976	0.055448
632.9859	0.046563
633.6743	0.047175
634.3628	0.042828
635.0514	0.039325
635.7400	0.041351
636.4288	0.045297
637.1177	0.044622
637.8066	0.041013
638.4957	0.043904
639.1848	0.043588
639.8740	0.037567
640.5633	0.036343
641.2528	0.035054
641.9423	0.032565
642.6319	0.031309
643.3216	0.030294
644.0113	0.030467
644.7012	0.027700
645.3912	0.027258
646.0812	0.027303
646.7714	0.025958
647.4616	0.026259
648.1520	0.028679
648.8424	0.033388
649.5329	0.036059
650.2236	0.030048
650.9143	0.029536
651.6051	0.030249
652.2960	0.030421
652.9870	0.030794
653.6780	0.035464
654.3692	0.035175
655.0605	0.067105
655.7518	0.957806
656.4433	1.000000
657.1348	0.882185
657.8264	0.533588
658.5181	0.414197
659.2099	0.337979
659.9018	0.099789
660.5938	0.032573
661.2859	0.024712
661.9781	0.021810
662.6704	0.023231
663.3627	0.022823
664.0552	0.022066
664.7477	0.022338
665.4403	0.026028
666.1330	0.027153
666.8259	0.020679
667.5188	0.022990
668.2117	0.020963
668.9048	0.022822
669.5980	0.022357
670.2913	0.023856
670.9846	0.021577
671.6781	0.030672
672.3716	0.032382
673.0652	0.035674
673.7589	0.029701
674.4527	0.029153
675.1466	0.027380
675.8406	0.028541
676.5347	0.025607
677.2288	0.023961
677.9231	0.028773
678.6174	0.030018
679.3119	0.033838
680.0064	0.034851
680.7010	0.035969
681.3957	0.037658
682.0905	0.034218
682.7854	0.030968
683.4803	0.033648
684.1754	0.032614
684.8705	0.038333
685.5658	0.045086
686.2611	0.042807
686.9565	0.043208
687.6520	0.042195
688.3476	0.041287
689.0433	0.037446
689.7390	0.034977
690.4349	0.034893
691.1308	0.039261
691.8269	0.040190
692.5230	0.039346
693.2192	0.040380
693.9155	0.038818
694.6119	0.033563
695.3083	0.035906
696.0049	0.030145
696.7016	0.035526
697.3983	0.040528
698.0951	0.039093
698.7920	0.039282
699.4890	0.036434
700.1861	0.031938
700.8833	0.032086
701.5806	0.030335
702.2779	0.030651
702.9753	0.032529
703.6729	0.028984
704.3705	0.027739
705.0682	0.025460
705.7660	0.024805
706.4638	0.030588
707.1618	0.037700
707.8599	0.038333
708.5580	0.038459
709.2562	0.031981
709.9545	0.034977
710.6529	0.034492
711.3514	0.033099
712.0500	0.026895
712.7486	0.029807
713.4474	0.032951
714.1462	0.034956
714.8451	0.035843
715.5441	0.034851
716.2432	0.030672
716.9424	0.028541
717.6416	0.028984
718.3410	0.030187
719.0404	0.031495
719.7399	0.030588
720.4395	0.028836
721.1392	0.030672
721.8390	0.031411
722.5388	0.029301
723.2388	0.028604
723.9388	0.030166
724.6389	0.028288
725.3391	0.031453
726.0394	0.034091
726.7398	0.034049
727.4403	0.031749
728.1408	0.032255
728.8414	0.034914
729.5421	0.035442
730.2429	0.038459
730.9438	0.042153
731.6448	0.043081
732.3458	0.039683
733.0470	0.043862
733.7482	0.045909
734.4495	0.048062
735.1509	0.046859
735.8524	0.046774
736.5539	0.048885
737.2556	0.050446
737.9573	0.043208
738.6591	0.042342
739.3610	0.047428
740.0630	0.044664
740.7651	0.040127
741.4672	0.036096
742.1695	0.035188
742.8718	0.036434
743.5742	0.034534
744.2767	0.029723
744.9792	0.031326
745.6819	0.026029
746.3846	0.029765
747.0874	0.029469
747.7903	0.033458
748.4933	0.029068
749.1964	0.031875
749.8995	0.036180
750.6028	0.041013
751.3061	0.039346
752.0095	0.041308
752.7130	0.038354
753.4166	0.037594
754.1202	0.043883
754.8239	0.041182
755.5278	0.042680
756.2317	0.045761
756.9356	0.053949
757.6397	0.058444
758.3438	0.057832
759.0481	0.054287
759.7524	0.061293
760.4568	0.065198
761.1613	0.062560
761.8658	0.053105
762.5705	0.049096
763.2752	0.052346
763.9800	0.050594
764.6849	0.059268
765.3898	0.057558
766.0949	0.050003
766.8000	0.040929
767.5052	0.037531
768.2105	0.043229
768.9159	0.051122
769.6214	0.046669
770.3269	0.045381
771.0325	0.046036
771.7382	0.046521
772.4440	0.040021
773.1499	0.041203
773.8558	0.038291
774.5618	0.033416
775.2679	0.031791
775.9741	0.027359
776.6804	0.026768
777.3868	0.025945
778.0932	0.024869
778.7997	0.028435
779.5063	0.031580
780.2130	0.029174
780.9197	0.031559
781.6265	0.038016
782.3335	0.035294
783.0405	0.035632
783.7475	0.035041
784.4547	0.029174
785.1619	0.029512
785.8692	0.028921
786.5766	0.028330
787.2841	0.029047
787.9917	0.030588
788.6993	0.032783
789.4070	0.029301
790.1148	0.026240
790.8227	0.026135
791.5306	0.023476
792.2387	0.023666
792.9468	0.022653
793.6550	0.023370
794.3632	0.031960
795.0716	0.032171
795.7800	0.029659
796.4885	0.022991
797.1971	0.021197
797.9058	0.024489
798.6145	0.023666
799.3233	0.024193
800.0322	0.020648
800.7412	0.020521
801.4503	0.019551
802.1594	0.018073
802.8686	0.017483
803.5779	0.019361
804.2873	0.016871
804.9968	0.018622
805.7063	0.018179
806.4159	0.020669
807.1256	0.025016
807.8354	0.024594
808.5452	0.022695
809.2551	0.022822
809.9651	0.018010
810.6752	0.018896
811.3853	0.020564
812.0956	0.017968
812.8059	0.015372
813.5163	0.018052
814.2267	0.018116
814.9373	0.018474
815.6479	0.016702
816.3586	0.014634
817.0694	0.015562
817.7802	0.015668
818.4912	0.014760
819.2022	0.013241
819.9133	0.012270
820.6244	0.015836
821.3357	0.014612
822.0470	0.013895
822.7584	0.013979
823.4698	0.012840
824.1814	0.012143
824.8930	0.012608
825.6047	0.014971
826.3165	0.012882
827.0283	0.014465
827.7402	0.013789
828.4522	0.013262
829.1643	0.013199
829.8765	0.011996
830.5887	0.010244
831.3010	0.007986
832.0134	0.008978
832.7259	0.009020
833.4384	0.009337
834.1510	0.009927
834.8637	0.010561
835.5765	0.011067
836.2893	0.009104
837.0022	0.007923
837.7152	0.006530
838.4283	0.007902
839.1414	0.007585
839.8546	0.006298
840.5679	0.008387
841.2813	0.006889
841.9947	0.007057
842.7082	0.005981
843.4218	0.005897
844.1355	0.006488
844.8492	0.003807
845.5631	0.006931
846.2770	0.006192
846.9909	0.005432
847.7050	0.004588
848.4191	0.006382
849.1333	0.004673
849.8475	0.004820
850.5619	0.002626
851.2763	0.004398
851.9908	0.005981
852.7053	0.010138
853.4200	0.013895
854.1347	0.014211
854.8495	0.015224
855.5643	0.011974
856.2792	0.013114
856.9942	0.013177
857.7093	0.010286
858.4245	0.010919
859.1397	0.009231
859.8550	0.009970
860.5704	0.007163
861.2858	0.008007
862.0013	0.007606
862.7169	0.005095
863.4326	0.007437
864.1483	0.008049
864.8642	0.005179
865.5800	0.005749
866.2960	0.004588
867.0120	0.005749
867.7281	0.004483
868.4443	0.006614
869.1606	0.004905
869.8769	0.005939
870.5933	0.006129
871.3097	0.006572
872.0263	0.005390
872.7429	0.006656
873.4596	0.006023
874.1763	0.004799
874.8932	0.006530
875.6101	0.006298
876.3270	0.004483
877.0441	0.004504
877.7612	0.007121
878.4784	0.006593
879.1957	0.007290
879.9130	0.008978
880.6304	0.006931
881.3479	0.007479
882.0654	0.007627
882.7831	0.004820
883.5007	0.006846
884.2185	0.008345
884.9363	0.005369
885.6542	0.007606
886.3722	0.006445
887.0903	0.005285
887.8084	0.006382
888.5266	0.004715
889.2448	0.004905
889.9632	0.005327
890.6816	0.004926
891.4001	0.004293
892.1186	0.005327
892.8372	0.002562
893.5559	0.005918
894.2747	0.002309
894.9935	0.006277
895.7124	0.004905
896.4314	0.004842
897.1504	0.004694
897.8695	0.005411
898.5887	0.005074
899.3079	0.005876
900.0272	0.003871
900.7466	0.005010
901.4661	0.003934
902.1856	0.006002
902.9052	0.003343
903.6249	0.005707
904.3446	0.003892
905.0644	0.004609
905.7843	0.004884
906.5043	0.004989
907.2243	0.004483
907.9444	0.005095
908.6645	0.005285
909.3847	0.003934
910.1050	0.003470
910.8254	0.004124
911.5458	0.005348
912.2663	0.004230
912.9869	0.004778
913.7075	0.004504
914.4283	0.003723
915.1490	0.003913
915.8699	0.002267
916.5908	0.003259
917.3118	0.004905
918.0328	0.004820
918.7539	0.003723
919.4751	0.004483
920.1964	0.004335
920.9177	0.002246
921.6391	0.003681
922.3606	0.003343
923.0821	0.004441
923.8037	0.004504
924.5254	0.003406
925.2471	0.003195
925.9689	0.002267
926.6908	0.003428
927.4127	0.001929
928.1347	0.003702
928.8568	0.004377
929.5789	0.001993
930.3011	0.001950
931.0234	0.003343
931.7457	0.002098
932.4681	0.001359
933.1906	0.003343
933.9131	0.003132
934.6358	0.001001
935.3584	0.002056
936.0812	0.001359
936.8040	0.003554
937.5269	0.001085
938.2498	0.001106
938.9728	0.002626
939.6959	0.001127
940.4190	0.003090
941.1422	0.001338
941.8655	0.002499
942.5889	-0.001025
943.3123	0.000726
944.0357	0.002140
944.7593	0.001718
945.4829	0.001908
946.2066	0.000853
946.9303	0.000874
947.6541	0.001001
948.3780	0.001824
949.1019	0.003174
949.8259	0.001507
950.5500	0.002225
951.2741	0.001317
951.9983	0.001824
952.7226	0.002225
953.4469	0.002436
954.1713	0.000600
954.8958	0.001887
955.6203	0.001634
956.3449	0.001866
957.0696	0.000663
957.7943	0.001549
958.5191	0.001781
959.2439	0.000853
959.9688	0.000705
960.6938	0.001085
961.4189	0.001486
962.1440	0.001064
962.8692	-0.000223
963.5944	0.000874
964.3197	0.000368
965.0451	0.000726
965.7705	0.001064
966.4960	0.002541
967.2216	0.001359
967.9472	0.002288
968.6729	-0.001046
969.3987	0.001233
970.1245	0.000705
970.8504	0.000684
971.5763	0.000135
972.3023	0.000220
973.0284	0.000368
973.7545	0.002056
974.4807	0.001634
975.2070	0.000642
975.9333	0.000769
976.6597	0.001317
977.3862	-0.000097
978.1127	0.001148
978.8393	0.000557
979.5659	0.000515
980.2926	0.000916
981.0194	-0.000519
981.7462	-0.000118
982.4731	0.000262
983.2001	0.001486
983.9271	0.000790
984.6542	0.000262
985.3814	0.000030
986.1086	0.002309
986.8358	0.001212
987.5632	0.000790
988.2906	-0.000582
989.0180	-0.000540
989.7456	0.001402
990.4732	-0.000012
991.2008	0.000853
991.9285	0.001233
992.6563	0.001549
993.3841	0.000853
994.1120	0.000853
994.8400	-0.000012
995.5680	0.001254
996.2961	-0.000899
997.0242	0.001106
997.7524	-0.000033
998.4807	0.001064
999.2090	0.000853
999.9374	0.000958
1000.67	0.000199
1001.39	0.000346
1002.12	-0.000329
1002.85	0.000220
1003.58	0.000600
1004.31	0.000600
1005.04	0.001402
1005.77	0.000093
1006.5	0.002351
1007.22	0.001064
1007.95	0.000368
1008.68	0.000536
1009.41	0.000473
1010.14	0.000895
1010.87	0.000494
1011.6	0.000410
1012.33	0.000431
1013.06	0.000937
1013.79	0.002077
1014.52	0.001739
1015.25	0.001697
1015.98	-0.000076
1016.71	0.001887
1017.44	0.001064
1018.17	0.000621
1018.9	0.000325
1019.63	-0.000055
1020.36	0.000705
1021.09	0.001212
1021.82	-0.001658
1022.55	-0.000899
1023.03	0.000536