File: Auto_Polymerization/Spectra/MRG-061-F-2_spectra_while_flow/spectrum_2025-06-19_10-11-31.txt
# Wavelength (nm)	Intensity (a.u.)
197.7802	-0.000746
198.3922	-0.000049
199.0044	-0.001506
199.6168	-0.000999
200.2292	-0.000725
200.8418	-0.000577
201.4546	-0.000028
202.0674	0.000373
202.6805	0.000225
203.2936	0.000310
203.9069	0.000943
204.5203	0.001091
205.1338	0.000267
205.7475	-0.000915
206.3614	0.000352
206.9753	-0.000260
207.5894	-0.000324
208.2036	-0.000450
208.8180	0.000711
209.4325	0.000120
210.0471	0.000457
210.6618	-0.000134
211.2767	-0.000028
211.8918	-0.000387
212.5069	0.000711
213.1222	-0.000493
213.7376	-0.001168
214.3532	0.000669
214.9689	-0.000535
215.5847	0.000141
216.2007	0.000141
216.8168	-0.000450
217.4330	-0.000577
218.0494	0.001070
218.6659	-0.000324
219.2825	-0.000218
219.8992	0.000521
220.5161	-0.000873
221.1332	0.000943
221.7503	-0.000978
222.3676	0.000099
222.9850	-0.000683
223.6026	-0.000007
224.2203	0.000479
224.8381	-0.001042
225.4561	-0.000134
226.0742	-0.000830
226.6924	-0.000746
227.3107	0.000542
227.9292	0.000246
228.5478	0.000542
229.1666	-0.001168
229.7855	0.000500
230.4045	0.000077
231.0236	0.000711
231.6429	-0.000113
232.2623	-0.000746
232.8818	-0.000704
233.5015	0.000690
234.1213	-0.001823
234.7413	-0.000260
235.3613	0.000246
235.9815	0.001218
236.6018	0.001408
237.2223	0.000669
237.8429	-0.000662
238.4636	0.000521
239.0845	-0.001063
239.7055	-0.000429
240.3266	-0.001105
240.9478	0.000605
241.5692	-0.000282
242.1907	-0.000746
242.8124	0.000584
243.4341	0.000457
244.0560	0.000373
244.6781	-0.000662
245.3002	-0.000387
245.9225	0.000394
246.5449	0.000901
247.1675	0.000479
247.7902	-0.000493
248.4130	0.000626
249.0359	-0.000873
249.6590	-0.000535
250.2822	0.000056
250.9056	-0.000767
251.5290	-0.000598
252.1526	0.000162
252.7763	0.000225
253.4002	0.000310
254.0242	-0.001147
254.6483	-0.000155
255.2725	0.000331
255.8969	0.000838
256.5214	0.001260
257.1460	0.000120
257.7708	-0.000239
258.3957	-0.001084
259.0207	0.001028
259.6459	0.000985
260.2711	0.000183
260.8965	0.002210
261.5221	0.000394
262.1477	-0.000303
262.7735	-0.000070
263.3995	-0.000049
264.0255	-0.000366
264.6517	-0.000852
265.2780	0.000056
265.9044	0.000795
266.5310	0.000415
267.1577	0.000352
267.7845	-0.000408
268.4114	0.000415
269.0385	0.000352
269.6657	0.000267
270.2931	0.000204
270.9205	-0.000134
271.5481	0.000521
272.1758	-0.000408
272.8037	0.000162
273.4316	0.000014
274.0597	-0.000239
274.6880	0.000753
275.3163	-0.000197
275.9448	-0.000345
276.5734	0.000225
277.2022	-0.000260
277.8310	-0.000113
278.4600	0.000056
279.0891	0.000056
279.7184	-0.000345
280.3477	-0.000429
280.9772	-0.000809
281.6069	0.000605
282.2366	0.002147
282.8665	-0.000260
283.4965	0.001492
284.1266	-0.000429
284.7569	0.000331
285.3873	-0.000260
286.0178	0.000542
286.6484	0.000647
287.2792	-0.001823
287.9101	-0.000303
288.5411	-0.000176
289.1723	0.000563
289.8035	-0.000429
290.4349	-0.000472
291.0665	0.000162
291.6981	0.000690
292.3299	0.000394
292.9618	-0.001379
293.5938	-0.000387
294.2260	-0.000366
294.8582	-0.000915
295.4906	0.000310
296.1232	0.000521
296.7558	-0.000007
297.3886	-0.000303
298.0215	-0.001844
298.6545	-0.000472
299.2877	-0.000472
299.9210	-0.000450
300.5544	-0.001063
301.1879	0.001344
301.8215	-0.000387
302.4553	-0.000324
303.0892	-0.000260
303.7233	-0.000788
304.3574	0.000647
304.9917	0.000162
305.6261	0.000647
306.2606	0.000584
306.8953	-0.000028
307.5301	-0.000303
308.1650	-0.001211
308.8000	0.000120
309.4351	0.000035
310.0704	0.001112
310.7058	0.000457
311.3413	0.000711
311.9770	0.000099
312.6127	0.000816
313.2486	-0.001633
313.8846	0.000880
314.5208	0.000225
315.1570	-0.000704
315.7934	-0.000366
316.4299	-0.000788
317.0666	-0.000873
317.7033	0.000795
318.3402	0.000014
318.9772	-0.000746
319.6143	0.000014
320.2516	0.000542
320.8890	0.000267
321.5265	0.000647
322.1641	-0.000577
322.8018	0.001091
323.4397	0.000099
324.0777	0.001154
324.7158	-0.000324
325.3540	0.000394
325.9924	-0.000303
326.6308	-0.001612
327.2694	-0.000493
327.9082	0.001175
328.5470	-0.000577
329.1860	0.000120
329.8251	-0.000556
330.4643	-0.000683
331.1036	0.000035
331.7431	-0.000007
332.3826	-0.000134
333.0223	0.000373
333.6622	-0.000957
334.3021	-0.000535
334.9422	-0.000239
335.5823	0.000479
336.2227	-0.000387
336.8631	-0.001506
337.5036	-0.000303
338.1443	-0.000091
338.7851	-0.000725
339.4260	0.000289
340.0670	-0.000387
340.7082	-0.000830
341.3495	0.000753
341.9909	0.000373
342.6324	-0.000070
343.2740	-0.000640
343.9158	0.000204
344.5577	0.000859
345.1997	0.000584
345.8418	0.000077
346.4840	-0.000493
347.1264	0.001006
347.7689	0.000859
348.4115	0.000584
349.0542	-0.001168
349.6971	-0.001506
350.3400	-0.000619
350.9831	0.001154
351.6263	-0.000450
352.2696	0.000035
352.9131	0.000352
353.5566	0.001513
354.2003	-0.000894
354.8441	0.000753
355.4881	0.000457
356.1321	0.000310
356.7763	-0.000408
357.4206	-0.000894
358.0650	-0.000640
358.7095	0.000056
359.3541	0.000310
359.9989	0.000415
360.6438	0.000753
361.2888	-0.000577
361.9339	-0.000704
362.5791	0.000162
363.2245	-0.000303
363.8699	0.000521
364.5155	-0.000725
365.1612	0.002337
365.8071	0.000099
366.4530	-0.000282
367.0991	-0.000493
367.7453	0.001196
368.3916	-0.000725
369.0380	0.000120
369.6845	-0.000957
370.3312	-0.000176
370.9780	0.000394
371.6249	0.001682
372.2719	0.000563
372.9190	0.000077
373.5663	-0.000683
374.2136	-0.001084
374.8611	-0.000366
375.5087	0.002569
376.1564	0.001872
376.8043	0.000267
377.4522	-0.000662
378.1003	0.000669
378.7485	-0.000619
379.3968	0.001788
380.0452	-0.001232
380.6938	0.000077
381.3424	0.000246
381.9912	-0.001886
382.6401	0.000669
383.2891	-0.000070
383.9382	0.000732
384.5875	0.000669
385.2368	0.001175
385.8863	0.001112
386.5359	0.001154
387.1856	0.000732
387.8355	0.001577
388.4854	0.000732
389.1355	0.001682
389.7856	0.003815
390.4359	0.002864
391.0863	0.005673
391.7369	0.005778
392.3875	0.005652
393.0383	0.007130
393.6891	0.005799
394.3401	0.008396
394.9912	0.009811
395.6425	0.009769
396.2938	0.011880
396.9453	0.012112
397.5968	0.014055
398.2485	0.014794
398.9003	0.018341
399.5522	0.017877
400.2043	0.017644
400.8564	0.019418
401.5087	0.020030
402.1610	0.020854
402.8135	0.020790
403.4661	0.019904
404.1189	0.023134
404.7717	0.021656
405.4246	0.026343
406.0777	0.024063
406.7309	0.023345
407.3842	0.025435
408.0376	0.024570
408.6911	0.025414
409.3448	0.025351
409.9985	0.026196
410.6524	0.025562
411.3064	0.025098
411.9605	0.027800
412.6147	0.027842
413.2690	0.030545
413.9234	0.026723
414.5780	0.029130
415.2326	0.030397
415.8874	0.029743
416.5423	0.028434
417.1973	0.028772
417.8524	0.029595
418.5077	0.028708
419.1630	0.029679
419.8185	0.030313
420.4741	0.033205
421.1298	0.033480
421.7856	0.036605
422.4415	0.033121
423.0975	0.033649
423.7536	0.034240
424.4099	0.034092
425.0663	0.030630
425.7228	0.030946
426.3793	0.029658
427.0361	0.029806
427.6929	0.031411
428.3498	0.031347
429.0068	0.031031
429.6640	0.034831
430.3213	0.033205
430.9787	0.036077
431.6362	0.030883
432.2938	0.028434
432.9515	0.027969
433.6093	0.031559
434.2673	0.034050
434.9253	0.031031
435.5835	0.029933
436.2418	0.029764
436.9001	0.029827
437.5586	0.029848
438.2173	0.029046
438.8760	0.029701
439.5348	0.030313
440.1938	0.030334
440.8528	0.027842
441.5120	0.034958
442.1713	0.032129
442.8307	0.033417
443.4902	0.032509
444.1498	0.032234
444.8095	0.031200
445.4694	0.031812
446.1293	0.030883
446.7894	0.031622
447.4496	0.030165
448.1098	0.028476
448.7702	0.026428
449.4307	0.027040
450.0914	0.028349
450.7521	0.025098
451.4129	0.026196
452.0739	0.023810
452.7349	0.023113
453.3961	0.023451
454.0574	0.020811
454.7188	0.023451
455.3803	0.021973
456.0419	0.021804
456.7036	0.022353
457.3654	0.019882
458.0274	0.020769
458.6894	0.022142
459.3516	0.019017
460.0138	0.019376
460.6762	0.021593
461.3387	0.018679
462.0013	0.015301
462.6640	0.016736
463.3268	0.015385
463.9897	0.017919
464.6528	0.017581
465.3159	0.016736
465.9792	0.017919
466.6425	0.014625
467.3060	0.013274
467.9696	0.012218
468.6333	0.013992
469.2970	0.010951
469.9610	0.011120
470.6250	0.010508
471.2891	0.009853
471.9533	0.008671
472.6177	0.009853
473.2821	0.010972
473.9467	0.008523
474.6113	0.009473
475.2761	0.009304
475.9410	0.008840
476.6060	0.009156
477.2711	0.007552
477.9363	0.006982
478.6016	0.007953
479.2670	0.007826
479.9325	0.008059
480.5982	0.005905
481.2639	0.008312
481.9298	0.005842
482.5957	0.007531
483.2618	0.007467
483.9280	0.006264
484.5943	0.006707
485.2606	0.006285
485.9271	0.018236
486.5937	0.013949
487.2605	0.011120
487.9273	0.005377
488.5942	0.005356
489.2612	0.004765
489.9284	0.004406
490.5956	0.004723
491.2630	0.005166
491.9304	0.003857
492.5980	0.004216
493.2657	0.004321
493.9334	0.003371
494.6013	0.002104
495.2693	0.005609
495.9374	0.004131
496.6056	0.003646
497.2739	0.004532
497.9423	0.004913
498.6109	0.002611
499.2795	0.002907
499.9482	0.003456
500.6171	0.004807
501.2860	0.002506
501.9551	0.003730
502.6242	0.002527
503.2935	0.003646
503.9628	0.002041
504.6323	0.002886
505.3019	0.003941
505.9716	0.002484
506.6414	0.001302
507.3113	0.003688
507.9813	0.002104
508.6514	0.002738
509.3216	0.002801
509.9919	0.003097
510.6623	0.003941
511.3329	0.003582
512.0035	0.002379
512.6742	0.002696
513.3451	0.004005
514.0160	0.004068
514.6871	0.002189
515.3582	0.001408
516.0295	0.003097
516.7008	0.001703
517.3723	0.001914
518.0439	0.002294
518.7155	0.002949
519.3873	0.002062
520.0592	0.001872
520.7312	0.001703
521.4033	0.002970
522.0755	0.002379
522.7478	0.002801
523.4202	0.001302
524.0927	0.004068
524.7653	0.003603
525.4380	0.003097
526.1108	0.004068
526.7837	0.004617
527.4568	0.003751
528.1299	0.004511
528.8031	0.004976
529.4765	0.003456
530.1499	0.004786
530.8234	0.005440
531.4971	0.004701
532.1708	0.005673
532.8447	0.005884
533.5186	0.004532
534.1927	0.006728
534.8668	0.008291
535.5411	0.007805
536.2155	0.007552
536.8899	0.005377
537.5645	0.008037
538.2392	0.008291
538.9139	0.010698
539.5888	0.009072
540.2638	0.010677
540.9389	0.011395
541.6140	0.012049
542.2893	0.013823
542.9647	0.011437
543.6402	0.013358
544.3158	0.014351
544.9915	0.014794
545.6673	0.014562
546.3432	0.015047
547.0192	0.016251
547.6953	0.017307
548.3715	0.018236
549.0478	0.018489
549.7242	0.017644
550.4007	0.017201
551.0773	0.018679
551.7540	0.019165
552.4308	0.022163
553.1077	0.021445
553.7847	0.023071
554.4618	0.021255
555.1390	0.023556
555.8163	0.025689
556.4937	0.027505
557.1712	0.025457
557.8488	0.025435
558.5266	0.026111
559.2044	0.024591
559.8823	0.027230
560.5603	0.030925
561.2384	0.033374
561.9166	0.034177
562.5949	0.031791
563.2733	0.032635
563.9519	0.035971
564.6305	0.041398
565.3092	0.041588
565.9880	0.040004
566.6669	0.042834
567.3459	0.050772
568.0250	0.055692
568.7043	0.063568
569.3836	0.077693
570.0630	0.104445
570.7425	0.107020
571.4221	0.125875
572.1018	0.136728
572.7816	0.121758
573.4615	0.140824
574.1415	0.159721
574.8216	0.174755
575.5018	0.172221
576.1821	0.157525
576.8626	0.182757
577.5431	0.200957
578.2237	0.241180
578.9044	0.201358
579.5851	0.202857
580.2660	0.214238
580.9470	0.208220
581.6281	0.325932
582.3093	0.313305
582.9906	0.244093
583.6720	0.198635
584.3535	0.201886
585.0351	0.226632
585.7167	0.239322
586.3985	0.206869
587.0804	0.217490
587.7624	0.229187
588.4445	0.203470
589.1266	0.178112
589.8089	0.165443
590.4913	0.150241
591.1737	0.133498
591.8563	0.134574
592.5389	0.156216
593.2217	0.203364
593.9046	0.196270
594.5875	0.171587
595.2705	0.200366
595.9537	0.174733
596.6369	0.147222
597.3203	0.153070
598.0037	0.147222
598.6872	0.156554
599.3709	0.186515
600.0546	0.183580
600.7384	0.186114
601.4223	0.183981
602.1064	0.168420
602.7905	0.172601
603.4747	0.189112
604.1590	0.177985
604.8434	0.156934
605.5279	0.170025
606.2125	0.172875
606.8972	0.159785
607.5819	0.161242
608.2668	0.153155
608.9518	0.143991
609.6369	0.133096
610.3220	0.150663
611.0073	0.139198
611.6927	0.140930
612.3781	0.129845
613.0637	0.134131
613.7493	0.125896
614.4351	0.128472
615.1209	0.128219
615.8068	0.132231
616.4929	0.115635
617.1790	0.110378
617.8652	0.107506
618.5515	0.103748
619.2379	0.088968
619.9244	0.093317
620.6110	0.096611
621.2977	0.077376
621.9845	0.079171
622.6714	0.085273
623.3584	0.091523
624.0454	0.085505
624.7326	0.092346
625.4199	0.083689
626.1072	0.079065
626.7947	0.073723
627.4822	0.072224
628.1698	0.064961
628.8576	0.058796
629.5454	0.063293
630.2333	0.059598
630.9213	0.057191
631.6094	0.052673
632.2976	0.050097
632.9859	0.045072
633.6743	0.046740
634.3628	0.044037
635.0514	0.040743
635.7400	0.039540
636.4288	0.044143
637.1177	0.043530
637.8066	0.039434
638.4957	0.042411
639.1848	0.041630
639.8740	0.039549
640.5633	0.036090
641.2528	0.035034
641.9423	0.032395
642.6319	0.030867
643.3216	0.028263
644.0113	0.029417
644.7012	0.028256
645.3912	0.026762
646.0812	0.026609
646.7714	0.025021
647.4616	0.024035
648.1520	0.030741
648.8424	0.033781
649.5329	0.032465
650.2236	0.032046
650.9143	0.028323
651.6051	0.028659
652.2960	0.031520
652.9870	0.031604
653.6780	0.031498
654.3692	0.032508
655.0605	0.065224
655.7518	0.959023
656.4433	1.000000
657.1348	0.879466
657.8264	0.534726
658.5181	0.415316
659.2099	0.333755
659.9018	0.097792
660.5938	0.031139
661.2859	0.023206
661.9781	0.022800
662.6704	0.021676
663.3627	0.021933
664.0552	0.021342
664.7477	0.024559
665.4403	0.022792
666.1330	0.022299
666.8259	0.020063
667.5188	0.020939
668.2117	0.022068
668.9048	0.020621
669.5980	0.021170
670.2913	0.021339
670.9846	0.021318
671.6781	0.028054
672.3716	0.034261
673.0652	0.033628
673.7589	0.027399
674.4527	0.026871
675.1466	0.027209
675.8406	0.026153
676.5347	0.027272
677.2288	0.024274
677.9231	0.029658
678.6174	0.029701
679.3119	0.031495
680.0064	0.034071
680.7010	0.035401
681.3957	0.036732
682.0905	0.032783
682.7854	0.029236
683.4803	0.032699
684.1754	0.032023
684.8705	0.039666
685.5658	0.044079
686.2611	0.043340
686.9565	0.043045
687.6520	0.045325
688.3476	0.037787
689.0433	0.035655
689.7390	0.036014
690.4349	0.033480
691.1308	0.037914
691.8269	0.036161
692.5230	0.037027
693.2192	0.037386
693.9155	0.037682
694.6119	0.032276
695.3083	0.032657
696.0049	0.029130
696.7016	0.037196
697.3983	0.038294
698.0951	0.038041
698.7920	0.035064
699.4890	0.033480
700.1861	0.031516
700.8833	0.030418
701.5806	0.027758
702.2779	0.029109
702.9753	0.028750
703.6729	0.027969
704.3705	0.027294
705.0682	0.023028
705.7660	0.022205
706.4638	0.029637
707.1618	0.037872
707.8599	0.038378
708.5580	0.037724
709.2562	0.034810
709.9545	0.033860
710.6529	0.032825
711.3514	0.030988
712.0500	0.030503
712.7486	0.028645
713.4474	0.030693
714.1462	0.031347
714.8451	0.035591
715.5441	0.033902
716.2432	0.030608
716.9424	0.029658
717.6416	0.026407
718.3410	0.030461
719.0404	0.029088
719.7399	0.029088
720.4395	0.028286
721.1392	0.029194
721.8390	0.030313
722.5388	0.028772
723.2388	0.029025
723.9388	0.030503
724.6389	0.026639
725.3391	0.031495
726.0394	0.033079
726.7398	0.032825
727.4403	0.033712
728.1408	0.033079
728.8414	0.032593
729.5421	0.037281
730.2429	0.036394
730.9438	0.040595
731.6448	0.041250
732.3458	0.040300
733.0470	0.043699
733.7482	0.047479
734.4495	0.052145
735.1509	0.047246
735.8524	0.049590
736.5539	0.047035
737.2556	0.050371
737.9573	0.042686
738.6591	0.040764
739.3610	0.047690
740.0630	0.044670
740.7651	0.037872
741.4672	0.034747
742.1695	0.032108
742.8718	0.034662
743.5742	0.031073
744.2767	0.028539
744.9792	0.030672
745.6819	0.028054
746.3846	0.026386
747.0874	0.029616
747.7903	0.031390
748.4933	0.026322
749.1964	0.029848
749.8995	0.035612
750.6028	0.041250
751.3061	0.038357
752.0095	0.042137
752.7130	0.037956
753.4166	0.036985
754.1202	0.041862
754.8239	0.040849
755.5278	0.041482
756.2317	0.045515
756.9356	0.050371
757.6397	0.058120
758.3438	0.054235
759.0481	0.055565
759.7524	0.057867
760.4568	0.063019
761.1613	0.059725
761.8658	0.052166
762.5705	0.049569
763.2752	0.050287
763.9800	0.048112
764.6849	0.056241
765.3898	0.056262
766.0949	0.049696
766.8000	0.042897
767.5052	0.037133
768.2105	0.042791
768.9159	0.049886
769.6214	0.045262
770.3269	0.044459
771.0325	0.048070
771.7382	0.044544
772.4440	0.039413
773.1499	0.038231
773.8558	0.040490
774.5618	0.032319
775.2679	0.031770
775.9741	0.026259
776.6804	0.027272
777.3868	0.023810
778.0932	0.027272
778.7997	0.027040
779.5063	0.032445
780.2130	0.028075
780.9197	0.030566
781.6265	0.035739
782.3335	0.034261
783.0405	0.034409
783.7475	0.033649
784.4547	0.028835
785.1619	0.027779
785.8692	0.028096
786.5766	0.028687
787.2841	0.027547
787.9917	0.029848
788.6993	0.031115
789.4070	0.028476
790.1148	0.026407
790.8227	0.026027
791.5306	0.023979
792.2387	0.023324
792.9468	0.021360
793.6550	0.024253
794.3632	0.032044
795.0716	0.030672
795.7800	0.027462
796.4885	0.022944
797.1971	0.020896
797.9058	0.024190
798.6145	0.022015
799.3233	0.023409
800.0322	0.021593
800.7412	0.020706
801.4503	0.019735
802.1594	0.016779
802.8686	0.016230
803.5779	0.018806
804.2873	0.017074
804.9968	0.017940
805.7063	0.017518
806.4159	0.022944
807.1256	0.022986
807.8354	0.021846
808.5452	0.023535
809.2551	0.022902
809.9651	0.019714
810.6752	0.018362
811.3853	0.018003
812.0956	0.017454
812.8059	0.012007
813.5163	0.015575
814.2267	0.018489
814.9373	0.017687
815.6479	0.014224
816.3586	0.012915
817.0694	0.014646
817.7802	0.015427
818.4912	0.013949
819.2022	0.011965
819.9133	0.012514
820.6244	0.013654
821.3357	0.012619
822.0470	0.013084
822.7584	0.012091
823.4698	0.013041
824.1814	0.011331
824.8930	0.010402
825.6047	0.011606
826.3165	0.012746
827.0283	0.014308
827.7402	0.014055
828.4522	0.012514
829.1643	0.012978
829.8765	0.010233
830.5887	0.009579
831.3010	0.009537
832.0134	0.007193
832.7259	0.008966
833.4384	0.010064
834.1510	0.009684
834.8637	0.010656
835.5765	0.008840
836.2893	0.009938
837.0022	0.008122
837.7152	0.006032
838.4283	0.006538
839.1414	0.006285
839.8546	0.006475
840.5679	0.006074
841.2813	0.005968
841.9947	0.005630
842.7082	0.006327
843.4218	0.004913
844.1355	0.005250
844.8492	0.004068
845.5631	0.006369
846.2770	0.003941
846.9909	0.006581
847.7050	0.004807
848.4191	0.004047
849.1333	0.005630
849.8475	0.005588
850.5619	0.003582
851.2763	0.004385
851.9908	0.004891
852.7053	0.006559
853.4200	0.012830
854.1347	0.014161
854.8495	0.013147
855.5643	0.011922
856.2792	0.009600
856.9942	0.011331
857.7093	0.010423
858.4245	0.009009
859.1397	0.007721
859.8550	0.008650
860.5704	0.006454
861.2858	0.006538
862.0013	0.005715
862.7169	0.007108
863.4326	0.007130
864.1483	0.007235
864.8642	0.005609
865.5800	0.004997
866.2960	0.004448
867.0120	0.005039
867.7281	0.006369
868.4443	0.005736
869.1606	0.006686
869.8769	0.004807
870.5933	0.005250
871.3097	0.005820
872.0263	0.004680
872.7429	0.005314
873.4596	0.004448
874.1763	0.005187
874.8932	0.005208
875.6101	0.006433
876.3270	0.007341
877.0441	0.004913
877.7612	0.005757
878.4784	0.006116
879.1957	0.008713
879.9130	0.007045
880.6304	0.007826
881.3479	0.005694
882.0654	0.007256
882.7831	0.005757
883.5007	0.007214
884.2185	0.005124
884.9363	0.006454
885.6542	0.005694
886.3722	0.006771
887.0903	0.005208
887.8084	0.005609
888.5266	0.003540
889.2448	0.004575
889.9632	0.004005
890.6816	0.004406
891.4001	0.003836
892.1186	0.005145
892.8372	0.004005
893.5559	0.004617
894.2747	0.003857
894.9935	0.005039
895.7124	0.004385
896.4314	0.004575
897.1504	0.004026
897.8695	0.004723
898.5887	0.004575
899.3079	0.002653
900.0272	0.003603
900.7466	0.004744
901.4661	0.003392
902.1856	0.004152
902.9052	0.003815
903.6249	0.003941
904.3446	0.001767
905.0644	0.004976
905.7843	0.006855
906.5043	0.005525
907.2243	0.004279
907.9444	0.003667
908.6645	0.002717
909.3847	0.003899
910.1050	0.003012
910.8254	0.005039
911.5458	0.002611
912.2663	0.004300
912.9869	0.003245
913.7075	0.002611
914.4283	0.002801
915.1490	0.003118
915.8699	0.002273
916.5908	0.003941
917.3118	0.003984
918.0328	0.006285
918.7539	0.004026
919.4751	0.002273
920.1964	0.002527
920.9177	0.003498
921.6391	0.003392
922.3606	0.002696
923.0821	0.002548
923.8037	0.004427
924.5254	0.004596
925.2471	0.001893
925.9689	0.000479
926.6908	0.002252
927.4127	0.002463
928.1347	0.002759
928.8568	0.001534
929.5789	0.003245
930.3011	0.001534
931.0234	0.002020
931.7457	0.000669
932.4681	0.000943
933.1906	0.000964
933.9131	0.001914
934.6358	0.000943
935.3584	0.002337
936.0812	0.002189
936.8040	0.000732
937.5269	0.000859
938.2498	0.000922
938.9728	0.001957
939.6959	0.001555
940.4190	0.001175
941.1422	0.000711
941.8655	0.002400
942.5889	0.001175
943.3123	0.000500
944.0357	-0.000134
944.7593	0.001112
945.4829	0.001133
946.2066	0.001070
946.9303	-0.000028
947.6541	-0.000978
948.3780	0.001513
949.1019	0.001957
949.8259	0.000964
950.5500	0.000099
951.2741	0.000605
951.9983	0.001935
952.7226	0.000626
953.4469	-0.000429
954.1713	0.000985
954.8958	0.000753
955.6203	0.001196
956.3449	0.001344
957.0696	0.000120
957.7943	0.000014
958.5191	0.000732
959.2439	0.000753
959.9688	-0.001401
960.6938	0.001365
961.4189	-0.000556
962.1440	-0.000197
962.8692	0.000120
963.5944	-0.000007
964.3197	0.000014
965.0451	-0.001084
965.7705	0.000816
966.4960	0.000436
967.2216	0.000204
967.9472	-0.000746
968.6729	0.000690
969.3987	0.000394
970.1245	0.001492
970.8504	0.000711
971.5763	-0.000282
972.3023	0.001091
973.0284	0.001028
973.7545	-0.000408
974.4807	-0.001422
975.2070	0.000014
975.9333	0.000373
976.6597	0.000035
977.3862	-0.000176
978.1127	0.000626
978.8393	0.000014
979.5659	0.000795
980.2926	0.000373
981.0194	0.000204
981.7462	0.000077
982.4731	0.002041
983.2001	0.000141
983.9271	-0.000873
984.6542	0.001091
985.3814	-0.000514
986.1086	0.000120
986.8358	0.000436
987.5632	0.002463
988.2906	0.001534
989.0180	0.001260
989.7456	0.000436
990.4732	-0.000746
991.2008	0.000711
991.9285	0.000373
992.6563	0.000880
993.3841	0.000732
994.1120	0.000669
994.8400	-0.000788
995.5680	0.000711
996.2961	-0.001548
997.0242	0.000479
997.7524	0.000183
998.4807	0.001386
999.2090	0.000077
999.9374	0.000310
1000.67	0.000457
1001.39	0.001682
1002.12	0.000035
1002.85	-0.000978
1003.58	-0.000155
1004.31	0.000732
1005.04	0.000267
1005.77	-0.000155
1006.5	0.000647
1007.22	-0.000535
1007.95	0.000732
1008.68	0.000056
1009.41	-0.000028
1010.14	0.000120
1010.87	0.000922
1011.6	-0.001295
1012.33	0.001323
1013.06	0.000732
1013.79	0.000120
1014.52	0.000838
1015.25	0.000563
1015.98	0.000035
1016.71	-0.001168
1017.44	-0.000007
1018.17	0.000711
1018.9	0.001408
1019.63	0.001450
1020.36	-0.000345
1021.09	-0.000113
1021.82	-0.000809
1022.55	-0.000366
1023.03	-0.000113