File: Auto_Polymerization/Data/UV_VIS_Spectra/MRG-061-F-2_spectra_while_flow/spectrum_2025-06-19_10-01-17.txt
# Wavelength (nm)	Intensity (a.u.)
197.7802	-0.000317
198.3922	0.000443
199.0044	0.000696
199.6168	-0.000739
200.2292	0.001329
200.8418	0.000232
201.4546	-0.001182
202.0674	-0.000106
202.6805	0.000696
203.2936	0.000612
203.9069	0.000253
204.5203	0.000274
205.1338	0.000549
205.7475	0.001245
206.3614	0.000802
206.9753	-0.000169
207.5894	0.001266
208.2036	0.000042
208.8180	0.000042
209.4325	0.000380
210.0471	0.001498
210.6618	0.000675
211.2767	0.000549
211.8918	-0.000506
212.5069	0.001414
213.1222	-0.000928
213.7376	0.000549
214.3532	-0.000253
214.9689	0.001372
215.5847	0.001055
216.2007	0.001477
216.8168	-0.000886
217.4330	0.000464
218.0494	0.001034
218.6659	0.001498
219.2825	0.001561
219.8992	0.000823
220.5161	-0.000021
221.1332	0.000570
221.7503	-0.000633
222.3676	0.002005
222.9850	-0.000253
223.6026	0.000211
224.2203	-0.000506
224.8381	0.001899
225.4561	0.001203
226.0742	0.000127
226.6924	-0.000232
227.3107	0.001456
227.9292	0.001604
228.5478	0.001667
229.1666	0.000739
229.7855	-0.000317
230.4045	0.000169
231.0236	0.000485
231.6429	0.000274
232.2623	0.000865
232.8818	0.000696
233.5015	-0.000528
234.1213	0.000865
234.7413	0.001161
235.3613	0.000570
235.9815	-0.000021
236.6018	0.001751
237.2223	0.000084
237.8429	0.000950
238.4636	0.000612
239.0845	0.000907
239.7055	-0.000612
240.3266	-0.000127
240.9478	0.000654
241.5692	0.000084
242.1907	-0.000401
242.8124	0.001139
243.4341	0.000169
244.0560	-0.000148
244.6781	0.001287
245.3002	0.000528
245.9225	-0.000148
246.5449	0.001456
247.1675	0.001266
247.7902	-0.000591
248.4130	0.000675
249.0359	0.001772
249.6590	-0.000886
250.2822	-0.000021
250.9056	0.001266
251.5290	0.001203
252.1526	0.001308
252.7763	0.000464
253.4002	0.000802
254.0242	-0.000317
254.6483	0.000675
255.2725	0.001013
255.8969	0.000232
256.5214	0.000675
257.1460	0.000612
257.7708	-0.000675
258.3957	-0.000760
259.0207	-0.000169
259.6459	-0.000232
260.2711	0.000528
260.8965	0.000591
261.5221	0.000654
262.1477	0.001076
262.7735	-0.000211
263.3995	0.001182
264.0255	-0.000401
264.6517	0.000443
265.2780	0.000401
265.9044	-0.000190
266.5310	-0.000317
267.1577	-0.000359
267.7845	-0.000021
268.4114	0.001287
269.0385	-0.000084
269.6657	0.000211
270.2931	-0.000717
270.9205	0.001498
271.5481	0.000380
272.1758	0.000886
272.8037	0.001751
273.4316	0.000295
274.0597	0.000823
274.6880	0.001983
275.3163	0.000992
275.9448	-0.000211
276.5734	0.001498
277.2022	0.002195
277.8310	-0.000591
278.4600	0.001224
279.0891	0.000760
279.7184	0.001646
280.3477	0.000253
280.9772	0.000717
281.6069	0.000717
282.2366	0.000633
282.8665	-0.000401
283.4965	-0.000823
284.1266	0.000591
284.7569	0.001878
285.3873	0.001688
286.0178	0.000950
286.6484	0.000063
287.2792	-0.000950
287.9101	0.000781
288.5411	0.000760
289.1723	0.001435
289.8035	0.001477
290.4349	0.000253
291.0665	0.001055
291.6981	0.000675
292.3299	0.002195
292.9618	0.000464
293.5938	0.001604
294.2260	0.000084
294.8582	0.000169
295.4906	0.001456
296.1232	-0.000253
296.7558	-0.000422
297.3886	0.001139
298.0215	0.001329
298.6545	0.001414
299.2877	0.000591
299.9210	0.001224
300.5544	0.001034
301.1879	0.000422
301.8215	0.001372
302.4553	0.000950
303.0892	0.000802
303.7233	-0.000084
304.3574	-0.000380
304.9917	0.000211
305.6261	0.000739
306.2606	0.002511
306.8953	-0.000485
307.5301	0.002005
308.1650	0.000042
308.8000	0.000612
309.4351	0.000591
310.0704	0.000696
310.7058	0.000169
311.3413	0.000717
311.9770	-0.000506
312.6127	-0.000485
313.2486	-0.000675
313.8846	-0.000359
314.5208	-0.000739
315.1570	0.000042
315.7934	-0.000760
316.4299	0.001329
317.0666	0.000760
317.7033	0.001034
318.3402	0.000084
318.9772	0.001139
319.6143	0.001772
320.2516	0.000549
320.8890	0.000654
321.5265	0.000422
322.1641	0.000190
322.8018	0.001372
323.4397	-0.000190
324.0777	0.001203
324.7158	-0.000485
325.3540	0.000612
325.9924	0.001076
326.6308	0.000633
327.2694	0.000528
327.9082	0.001139
328.5470	-0.000042
329.1860	0.001667
329.8251	0.000127
330.4643	-0.000570
331.1036	0.001435
331.7431	0.000591
332.3826	0.000971
333.0223	0.000042
333.6622	0.000127
334.3021	0.001477
334.9422	0.000232
335.5823	0.000865
336.2227	0.001266
336.8631	0.000464
337.5036	0.000295
338.1443	0.000928
338.7851	-0.000211
339.4260	0.001097
340.0670	0.000844
340.7082	0.001097
341.3495	-0.000549
341.9909	-0.000422
342.6324	0.000950
343.2740	0.000570
343.9158	0.001561
344.5577	0.000717
345.1997	0.001667
345.8418	0.001224
346.4840	0.001245
347.1264	0.000253
347.7689	0.000506
348.4115	0.000485
349.0542	0.001561
349.6971	0.000127
350.3400	0.001329
350.9831	0.001034
351.6263	-0.000570
352.2696	0.001414
352.9131	0.000443
353.5566	0.001287
354.2003	-0.000570
354.8441	0.002891
355.4881	0.000654
356.1321	0.001308
356.7763	0.000380
357.4206	0.001034
358.0650	0.000148
358.7095	0.001435
359.3541	0.000865
359.9989	-0.000401
360.6438	-0.000021
361.2888	0.000865
361.9339	0.000485
362.5791	-0.000084
363.2245	0.000317
363.8699	0.000781
364.5155	-0.000232
365.1612	0.000295
365.8071	-0.000127
366.4530	-0.000021
367.0991	0.001350
367.7453	-0.000232
368.3916	0.000717
369.0380	0.002806
369.6845	-0.000760
370.3312	0.001477
370.9780	-0.000380
371.6249	0.001561
372.2719	-0.000148
372.9190	0.000717
373.5663	0.000464
374.2136	0.000274
374.8611	0.000190
375.5087	0.000506
376.1564	0.000802
376.8043	0.001477
377.4522	-0.000591
378.1003	0.001139
378.7485	0.001435
379.3968	0.000907
380.0452	0.001224
380.6938	0.001983
381.3424	-0.000950
381.9912	-0.000675
382.6401	0.000359
383.2891	0.000506
383.9382	0.001372
384.5875	0.002173
385.2368	0.001287
385.8863	0.000211
386.5359	0.000127
387.1856	0.002026
387.8355	0.003271
388.4854	0.003081
389.1355	0.002110
389.7856	0.003840
390.4359	0.004579
391.0863	0.005887
391.7369	0.005423
392.3875	0.005676
393.0383	0.008040
393.6891	0.008947
394.3401	0.009116
394.9912	0.009749
395.6425	0.010973
396.2938	0.011838
396.9453	0.013716
397.5968	0.015298
398.2485	0.017303
398.9003	0.017788
399.5522	0.019476
400.2043	0.017662
400.8564	0.018674
401.5087	0.020257
402.1610	0.021270
402.8135	0.022304
403.4661	0.021185
404.1189	0.024034
404.7717	0.023781
405.4246	0.026461
406.0777	0.025110
406.7309	0.024773
407.3842	0.025469
408.0376	0.024625
408.6911	0.027305
409.3448	0.026271
409.9985	0.028360
410.6524	0.027980
411.3064	0.027706
411.9605	0.028676
412.6147	0.030386
413.2690	0.031377
413.9234	0.029837
414.5780	0.029837
415.2326	0.029267
415.8874	0.028571
416.5423	0.029752
417.1973	0.029373
417.8524	0.029605
418.5077	0.030153
419.1630	0.031504
419.8185	0.032348
420.4741	0.031124
421.1298	0.033677
421.7856	0.038151
422.4415	0.034184
423.0975	0.035302
423.7536	0.034120
424.4099	0.032559
425.0663	0.033804
425.7228	0.030597
426.3793	0.030048
427.0361	0.030280
427.6929	0.031504
428.3498	0.030153
429.0068	0.032137
429.6640	0.035745
430.3213	0.039079
430.9787	0.035218
431.6362	0.032707
432.2938	0.029499
432.9515	0.029942
433.6093	0.032369
434.2673	0.035450
434.9253	0.031187
435.5835	0.030913
436.2418	0.031567
436.9001	0.032285
437.5586	0.031377
438.2173	0.030723
438.8760	0.030597
439.5348	0.030280
440.1938	0.030238
440.8528	0.031419
441.5120	0.033846
442.1713	0.036906
442.8307	0.034226
443.4902	0.032390
444.1498	0.033656
444.8095	0.033572
445.4694	0.031145
446.1293	0.030449
446.7894	0.030997
447.4496	0.029710
448.1098	0.028655
448.7702	0.027748
449.4307	0.027706
450.0914	0.029900
450.7521	0.028043
451.4129	0.024688
452.0739	0.024688
452.7349	0.026292
453.3961	0.021671
454.0574	0.021291
454.7188	0.022663
455.3803	0.021354
456.0419	0.022051
456.7036	0.021333
457.3654	0.019919
458.0274	0.021692
458.6894	0.021101
459.3516	0.020320
460.0138	0.021607
460.6762	0.020046
461.3387	0.019856
462.0013	0.017493
462.6640	0.016480
463.3268	0.017725
463.9897	0.018421
464.6528	0.018463
465.3159	0.017704
465.9792	0.018780
466.6425	0.015573
467.3060	0.013884
467.9696	0.014412
468.6333	0.012851
469.2970	0.011373
469.9610	0.012386
470.6250	0.010994
471.2891	0.009981
471.9533	0.009706
472.6177	0.009580
473.2821	0.008398
473.9467	0.008630
474.6113	0.009770
475.2761	0.011057
475.9410	0.009179
476.6060	0.008229
477.2711	0.007322
477.9363	0.008504
478.6016	0.007111
479.2670	0.009200
479.9325	0.007111
480.5982	0.007280
481.2639	0.008356
481.9298	0.006689
482.5957	0.007428
483.2618	0.006373
483.9280	0.005043
484.5943	0.006457
485.2606	0.006731
485.9271	0.021523
486.5937	0.014053
487.2605	0.010150
487.9273	0.007217
488.5942	0.005908
489.2612	0.004938
489.9284	0.004727
490.5956	0.003925
491.2630	0.004516
491.9304	0.004389
492.5980	0.004811
493.2657	0.004262
493.9334	0.004769
494.6013	0.004009
495.2693	0.003840
495.9374	0.003798
496.6056	0.003587
497.2739	0.004094
497.9423	0.004030
498.6109	0.003081
499.2795	0.003313
499.9482	0.003840
500.6171	0.004516
501.2860	0.004431
501.9551	0.005149
502.6242	0.002828
503.2935	0.003376
503.9628	0.002680
504.6323	0.003714
505.3019	0.003461
505.9716	0.003271
506.6414	0.003925
507.3113	0.003650
507.9813	0.002764
508.6514	0.003376
509.3216	0.003545
509.9919	0.003756
510.6623	0.003925
511.3329	0.003060
512.0035	0.002996
512.6742	0.003439
513.3451	0.002152
514.0160	0.004579
514.6871	0.002152
515.3582	0.004262
516.0295	0.001983
516.7008	0.003650
517.3723	0.003650
518.0439	0.003081
518.7155	0.001815
519.3873	0.002363
520.0592	0.002680
520.7312	0.001393
521.4033	0.004199
522.0755	0.004157
522.7478	0.004157
523.4202	0.003186
524.0927	0.003313
524.7653	0.004748
525.4380	0.004009
526.1108	0.005085
526.7837	0.004579
527.4568	0.004832
528.1299	0.005360
528.8031	0.005402
529.4765	0.004853
530.1499	0.004938
530.8234	0.004917
531.4971	0.006499
532.1708	0.005360
532.8447	0.005360
533.5186	0.007702
534.1927	0.007744
534.8668	0.007617
535.5411	0.007322
536.2155	0.008926
536.8899	0.006816
537.5645	0.007723
538.2392	0.009031
538.9139	0.010930
539.5888	0.009833
540.2638	0.011437
540.9389	0.013526
541.6140	0.012133
542.2893	0.012006
542.9647	0.013420
543.6402	0.012914
544.3158	0.016417
544.9915	0.014602
545.6673	0.015762
546.3432	0.014644
547.0192	0.014539
547.6953	0.020278
548.3715	0.020827
549.0478	0.019307
549.7242	0.019940
550.4007	0.018885
551.0773	0.019919
551.7540	0.020278
552.4308	0.023929
553.1077	0.024076
553.7847	0.024287
554.4618	0.022430
555.1390	0.022916
555.8163	0.027052
556.4937	0.028508
557.1712	0.028001
557.8488	0.028803
558.5266	0.025954
559.2044	0.027663
559.8823	0.029541
560.5603	0.032158
561.2384	0.036420
561.9166	0.034479
562.5949	0.031820
563.2733	0.036442
563.9519	0.036842
564.6305	0.038995
565.3092	0.041126
565.9880	0.042814
566.6669	0.041274
567.3459	0.051360
568.0250	0.056171
568.7043	0.066321
569.3836	0.078116
570.0630	0.104661
570.7425	0.108248
571.4221	0.130405
572.1018	0.138993
572.7816	0.118419
573.4615	0.140301
574.1415	0.162436
574.8216	0.173176
575.5018	0.177017
576.1821	0.161782
576.8626	0.183558
577.5431	0.201663
578.2237	0.240805
578.9044	0.207444
579.5851	0.199088
580.2660	0.212656
580.9470	0.210061
581.6281	0.325463
582.3093	0.313266
582.9906	0.244371
583.6720	0.204110
584.3535	0.197590
585.0351	0.229326
585.7167	0.241143
586.3985	0.211222
587.0804	0.218818
587.7624	0.232555
588.4445	0.207613
589.1266	0.178642
589.8089	0.165812
590.4913	0.151906
591.1737	0.134224
591.8563	0.136566
592.5389	0.159418
593.2217	0.207571
593.9046	0.197506
594.5875	0.171847
595.2705	0.202570
595.9537	0.179338
596.6369	0.146104
597.3203	0.152012
598.0037	0.147433
598.6872	0.158406
599.3709	0.186618
600.0546	0.185478
600.7384	0.183853
601.4223	0.185246
602.1064	0.170032
602.7905	0.169652
603.4747	0.191851
604.1590	0.176890
604.8434	0.162710
605.5279	0.166994
606.2125	0.174632
606.8972	0.157709
607.5819	0.164609
608.2668	0.155114
608.9518	0.146695
609.6369	0.136587
610.3220	0.152856
611.0073	0.141293
611.6927	0.137452
612.3781	0.133338
613.0637	0.131312
613.7493	0.130552
614.4351	0.128421
615.1209	0.128400
615.8068	0.131080
616.4929	0.117744
617.1790	0.109979
617.8652	0.110802
618.5515	0.101412
619.2379	0.092655
619.9244	0.093836
620.6110	0.098521
621.2977	0.075689
621.9845	0.079741
622.6714	0.085122
623.3584	0.088899
624.0454	0.087527
624.7326	0.090502
625.4199	0.083792
626.1072	0.077525
626.7947	0.075267
627.4822	0.073073
628.1698	0.062923
628.8576	0.059210
629.5454	0.065920
630.2333	0.059610
630.9213	0.058323
631.6094	0.055095
632.2976	0.053470
632.9859	0.048005
633.6743	0.046275
634.3628	0.043785
635.0514	0.041611
635.7400	0.041464
636.4288	0.046190
637.1177	0.043932
637.8066	0.041337
638.4957	0.043721
639.1848	0.041358
639.8740	0.039765
640.5633	0.037415
641.2528	0.035041
641.9423	0.032043
642.6319	0.030159
643.3216	0.029030
644.0113	0.032408
644.7012	0.029160
645.3912	0.028118
646.0812	0.027714
646.7714	0.025791
647.4616	0.023540
648.1520	0.029830
648.8424	0.032112
649.5329	0.035041
650.2236	0.031508
650.9143	0.028631
651.6051	0.030618
652.2960	0.032712
652.9870	0.030888
653.6780	0.033201
654.3692	0.034887
655.0605	0.064892
655.7518	0.956609
656.4433	1.000000
657.1348	0.875721
657.8264	0.535753
658.5181	0.413782
659.2099	0.336210
659.9018	0.097210
660.5938	0.031001
661.2859	0.026709
661.9781	0.025587
662.6704	0.022986
663.3627	0.022010
664.0552	0.023662
664.7477	0.023607
665.4403	0.024328
666.1330	0.023615
666.8259	0.021215
667.5188	0.021481
668.2117	0.022899
668.9048	0.020363
669.5980	0.020510
670.2913	0.022304
670.9846	0.023992
671.6781	0.029415
672.3716	0.035534
673.0652	0.032158
673.7589	0.029837
674.4527	0.027811
675.1466	0.026566
675.8406	0.027326
676.5347	0.027516
677.2288	0.025996
677.9231	0.031040
678.6174	0.030111
679.3119	0.033846
680.0064	0.035893
680.7010	0.035513
681.3957	0.035386
682.0905	0.034184
682.7854	0.029963
683.4803	0.032981
684.1754	0.033382
684.8705	0.039543
685.5658	0.044671
686.2611	0.043742
686.9565	0.041864
687.6520	0.043510
688.3476	0.040261
689.0433	0.039396
689.7390	0.037729
690.4349	0.033677
691.1308	0.038256
691.8269	0.038953
692.5230	0.038383
693.2192	0.039079
693.9155	0.037328
694.6119	0.034690
695.3083	0.037159
696.0049	0.030681
696.7016	0.037919
697.3983	0.037729
698.0951	0.039227
698.7920	0.038362
699.4890	0.035344
700.1861	0.032939
700.8833	0.031419
701.5806	0.028993
702.2779	0.029394
702.9753	0.030006
703.6729	0.030702
704.3705	0.028697
705.0682	0.024752
705.7660	0.025427
706.4638	0.029014
707.1618	0.039016
707.8599	0.037222
708.5580	0.037475
709.2562	0.034247
709.9545	0.035830
710.6529	0.035661
711.3514	0.032643
712.0500	0.028908
712.7486	0.030175
713.4474	0.033994
714.1462	0.037834
714.8451	0.036062
715.5441	0.034753
716.2432	0.029963
716.9424	0.029162
717.6416	0.029330
718.3410	0.029752
719.0404	0.028930
719.7399	0.029605
720.4395	0.027896
721.1392	0.031820
721.8390	0.031272
722.5388	0.028930
723.2388	0.029731
723.9388	0.029098
724.6389	0.026081
725.3391	0.033445
726.0394	0.034859
726.7398	0.035386
727.4403	0.031504
728.1408	0.035239
728.8414	0.033741
729.5421	0.038953
730.2429	0.036758
730.9438	0.044376
731.6448	0.044460
732.3458	0.040176
733.0470	0.042498
733.7482	0.045072
734.4495	0.054209
735.1509	0.048110
735.8524	0.052310
736.5539	0.048469
737.2556	0.049862
737.9573	0.045325
738.6591	0.041358
739.3610	0.048005
740.0630	0.044629
740.7651	0.040472
741.4672	0.033255
742.1695	0.034247
742.8718	0.035745
743.5742	0.031061
744.2767	0.029795
744.9792	0.031251
745.6819	0.029183
746.3846	0.028613
747.0874	0.030470
747.7903	0.033023
748.4933	0.028360
749.1964	0.031525
749.8995	0.038931
750.6028	0.040092
751.3061	0.038847
752.0095	0.040662
752.7130	0.040240
753.4166	0.038298
754.1202	0.042118
754.8239	0.043869
755.5278	0.042687
756.2317	0.049398
756.9356	0.051297
757.6397	0.058893
758.3438	0.057099
759.0481	0.054335
759.7524	0.059568
760.4568	0.062755
761.1613	0.064358
761.8658	0.053976
762.5705	0.048722
763.2752	0.049566
763.9800	0.051698
764.6849	0.057374
765.3898	0.057690
766.0949	0.053322
766.8000	0.042097
767.5052	0.038699
768.2105	0.043679
768.9159	0.049039
769.6214	0.046950
770.3269	0.046612
771.0325	0.048722
771.7382	0.045135
772.4440	0.041231
773.1499	0.042371
773.8558	0.036948
774.5618	0.033719
775.2679	0.030913
775.9741	0.026397
776.6804	0.025954
777.3868	0.025743
778.0932	0.026334
778.7997	0.030597
779.5063	0.032158
780.2130	0.029457
780.9197	0.031905
781.6265	0.035429
782.3335	0.036420
783.0405	0.035513
783.7475	0.036842
784.4547	0.032854
785.1619	0.030997
785.8692	0.029963
786.5766	0.028571
787.2841	0.027748
787.9917	0.028908
788.6993	0.030428
789.4070	0.030386
790.1148	0.028381
790.8227	0.025110
791.5306	0.025828
792.2387	0.023696
792.9468	0.022156
793.6550	0.024899
794.3632	0.033065
795.0716	0.034753
795.7800	0.030723
796.4885	0.025490
797.1971	0.021776
797.9058	0.022620
798.6145	0.024119
799.3233	0.025195
800.0322	0.021080
800.7412	0.019286
801.4503	0.018991
802.1594	0.016290
802.8686	0.016332
803.5779	0.019561
804.2873	0.016923
804.9968	0.017662
805.7063	0.017429
806.4159	0.024330
807.1256	0.022874
807.8354	0.021797
808.5452	0.023148
809.2551	0.022452
809.9651	0.020637
810.6752	0.021185
811.3853	0.018147
812.0956	0.017197
812.8059	0.014159
813.5163	0.016691
814.2267	0.019223
814.9373	0.018485
815.6479	0.014707
816.3586	0.013842
817.0694	0.015129
817.7802	0.014940
818.4912	0.015256
819.2022	0.014074
819.9133	0.012407
820.6244	0.014686
821.3357	0.015362
822.0470	0.014412
822.7584	0.012682
823.4698	0.012323
824.1814	0.012302
824.8930	0.011352
825.6047	0.012935
826.3165	0.012513
827.0283	0.013462
827.7402	0.013863
828.4522	0.013146
829.1643	0.013399
829.8765	0.011817
830.5887	0.011395
831.3010	0.008314
832.0134	0.008862
832.7259	0.009306
833.4384	0.010171
834.1510	0.010529
834.8637	0.009960
835.5765	0.010466
836.2893	0.008673
837.0022	0.008187
837.7152	0.008989
838.4283	0.006647
839.1414	0.005275
839.8546	0.008208
840.5679	0.006541
841.2813	0.006288
841.9947	0.006077
842.7082	0.005697
843.4218	0.006014
844.1355	0.005149
844.8492	0.007027
845.5631	0.005972
846.2770	0.004579
846.9909	0.005634
847.7050	0.005908
848.4191	0.005993
849.1333	0.006436
849.8475	0.007006
850.5619	0.004769
851.2763	0.005128
851.9908	0.005550
852.7053	0.009179
853.4200	0.011838
854.1347	0.014518
854.8495	0.013969
855.5643	0.012091
856.2792	0.012618
856.9942	0.010129
857.7093	0.010909
858.4245	0.010973
859.1397	0.009770
859.8550	0.009896
860.5704	0.008040
861.2858	0.007217
862.0013	0.006478
862.7169	0.005149
863.4326	0.005929
864.1483	0.008040
864.8642	0.005613
865.5800	0.004980
866.2960	0.005571
867.0120	0.007153
867.7281	0.007470
868.4443	0.006162
869.1606	0.004811
869.8769	0.006309
870.5933	0.004895
871.3097	0.006436
872.0263	0.005634
872.7429	0.005106
873.4596	0.004178
874.1763	0.006731
874.8932	0.003883
875.6101	0.006647
876.3270	0.005655
877.0441	0.004748
877.7612	0.006351
878.4784	0.007006
879.1957	0.008082
879.9130	0.009010
880.6304	0.007660
881.3479	0.007238
882.0654	0.007322
882.7831	0.007512
883.5007	0.008040
884.2185	0.005254
884.9363	0.007174
885.6542	0.006731
886.3722	0.006710
887.0903	0.006204
887.8084	0.006605
888.5266	0.006162
889.2448	0.005317
889.9632	0.006162
890.6816	0.004874
891.4001	0.004558
892.1186	0.004895
892.8372	0.005866
893.5559	0.006309
894.2747	0.004051
894.9935	0.004959
895.7124	0.005423
896.4314	0.005803
897.1504	0.004727
897.8695	0.006541
898.5887	0.004684
899.3079	0.004642
900.0272	0.003355
900.7466	0.006605
901.4661	0.005528
902.1856	0.004621
902.9052	0.005149
903.6249	0.004516
904.3446	0.004621
905.0644	0.004347
905.7843	0.005106
906.5043	0.005381
907.2243	0.003756
907.9444	0.005866
908.6645	0.004410
909.3847	0.004284
910.1050	0.003060
910.8254	0.005149
911.5458	0.004009
912.2663	0.003482
912.9869	0.004431
913.7075	0.004051
914.4283	0.003102
915.1490	0.003545
915.8699	0.004262
916.5908	0.005634
917.3118	0.003650
918.0328	0.004853
918.7539	0.003292
919.4751	0.004368
920.1964	0.003355
920.9177	0.005613
921.6391	0.004094
922.3606	0.005381
923.0821	0.002026
923.8037	0.003334
924.5254	0.004030
925.2471	0.003418
925.9689	0.002680
926.6908	0.002870
927.4127	0.002617
928.1347	0.003503
928.8568	0.003144
929.5789	0.003207
930.3011	0.001667
931.0234	0.002806
931.7457	0.001583
932.4681	0.004853
933.1906	0.002342
933.9131	0.002617
934.6358	0.002828
935.3584	0.002891
936.0812	0.001730
936.8040	0.001498
937.5269	0.001962
938.2498	0.000464
938.9728	0.002068
939.6959	-0.000443
940.4190	0.004030
941.1422	0.001836
941.8655	0.001878
942.5889	0.001920
943.3123	0.000907
944.0357	0.001076
944.7593	0.001646
945.4829	0.000907
946.2066	0.000802
946.9303	0.002321
947.6541	0.000886
948.3780	-0.000127
949.1019	0.000802
949.8259	0.000549
950.5500	0.001013
951.2741	0.001266
951.9983	0.001857
952.7226	0.001013
953.4469	0.000464
954.1713	0.000696
954.8958	0.001772
955.6203	0.000401
956.3449	0.000317
957.0696	0.001477
957.7943	0.000928
958.5191	0.001688
959.2439	0.001772
959.9688	0.001709
960.6938	0.001604
961.4189	0.000274
962.1440	0.002279
962.8692	0.001899
963.5944	0.001604
964.3197	0.001372
965.0451	0.000211
965.7705	0.000717
966.4960	0.000992
967.2216	0.001076
967.9472	0.002089
968.6729	0.001941
969.3987	0.000422
970.1245	-0.000211
970.8504	0.000907
971.5763	0.001308
972.3023	0.001836
973.0284	0.000802
973.7545	0.000739
974.4807	0.000549
975.2070	0.000844
975.9333	0.000253
976.6597	0.000485
977.3862	0.001097
978.1127	0.001435
978.8393	-0.000802
979.5659	-0.000169
980.2926	-0.000169
981.0194	0.000739
981.7462	0.001920
982.4731	0.001604
983.2001	0.000253
983.9271	0.002068
984.6542	0.000169
985.3814	0.000485
986.1086	0.000760
986.8358	-0.001287
987.5632	0.001034
988.2906	0.001498
989.0180	0.000506
989.7456	-0.000211
990.4732	-0.000253
991.2008	0.001414
991.9285	0.001224
992.6563	0.000000
993.3841	0.001161
994.1120	0.000169
994.8400	0.000528
995.5680	0.000211
996.2961	-0.000359
997.0242	0.001667
997.7524	0.000106
998.4807	0.000169
999.2090	0.001625
999.9374	-0.000717
1000.67	0.001751
1001.39	0.000696
1002.12	-0.000127
1002.85	0.000317
1003.58	-0.000760
1004.31	0.000907
1005.04	0.000760
1005.77	0.000211
1006.5	0.000338
1007.22	0.000000
1007.95	0.002089
1008.68	-0.000253
1009.41	0.000781
1010.14	0.001097
1010.87	0.001076
1011.6	-0.000950
1012.33	0.000127
1013.06	-0.000106
1013.79	-0.000359
1014.52	0.000570
1015.25	0.000781
1015.98	0.000992
1016.71	0.000886
1017.44	0.001350
1018.17	-0.000380
1018.9	0.000211
1019.63	-0.000042
1020.36	0.000886
1021.09	0.001772
1021.82	-0.000169
1022.55	0.000739
1023.03	-0.000950