File: Auto_Polymerization/Spectra/MRG-061-G- spectra_G1_G2_after_aminolysis/MRG-061-F-7-reference_polymer_before_aminolysis.txt
# Wavelength (nm)	Intensity (a.u.)
197.7802	0.001431
198.3922	-0.000151
199.0044	0.000840
199.6168	-0.000636
200.2292	0.000777
200.8418	0.000608
201.4546	0.000524
202.0674	0.000566
202.6805	0.001136
203.2936	0.000672
203.9069	0.002486
204.5203	0.000271
205.1338	0.000693
205.7475	-0.000932
206.3614	0.001030
206.9753	0.000271
207.5894	0.000882
208.2036	0.000482
208.8180	-0.000742
209.4325	0.000123
210.0471	0.000735
210.6618	-0.000172
211.2767	0.001093
211.8918	-0.000721
212.5069	-0.000763
213.1222	-0.000784
213.7376	0.001515
214.3532	-0.000046
214.9689	0.001347
215.5847	-0.000468
216.2007	-0.000362
216.8168	0.000777
217.4330	-0.000531
218.0494	-0.000383
218.6659	0.001684
219.2825	0.000566
219.8992	0.001157
220.5161	0.001115
221.1332	-0.000025
221.7503	0.000925
222.3676	0.000313
222.9850	0.000650
223.6026	0.001874
224.2203	0.000081
224.8381	0.000629
225.4561	0.001832
226.0742	0.000545
226.6924	0.000967
227.3107	0.000418
227.9292	0.001178
228.5478	0.000439
229.1666	0.000566
229.7855	-0.000362
230.4045	-0.000236
231.0236	0.000461
231.6429	-0.001839
232.2623	-0.000214
232.8818	0.000967
233.5015	0.000587
234.1213	-0.000425
234.7413	0.001874
235.3613	-0.000636
235.9815	0.000186
236.6018	-0.000067
237.2223	0.001452
237.8429	0.000503
238.4636	0.000925
239.0845	-0.000299
239.7055	0.001136
240.3266	0.001304
240.9478	0.000608
241.5692	0.001093
242.1907	0.000672
242.8124	-0.000341
243.4341	0.000439
244.0560	0.000207
244.6781	0.000988
245.3002	0.000735
245.9225	0.000756
246.5449	0.000777
247.1675	0.000165
247.7902	0.000229
248.4130	-0.000130
249.0359	-0.000362
249.6590	0.002317
250.2822	-0.000257
250.9056	0.000081
251.5290	0.000524
252.1526	-0.000447
252.7763	-0.000721
253.4002	0.000777
254.0242	0.001241
254.6483	0.001494
255.2725	0.001262
255.8969	0.002000
256.5214	0.000608
257.1460	0.001747
257.7708	0.000060
258.3957	0.001937
259.0207	0.000397
259.6459	0.000102
260.2711	-0.000679
260.8965	0.000629
261.5221	0.001642
262.1477	0.000144
262.7735	0.001241
263.3995	0.001431
264.0255	0.001030
264.6517	0.000798
265.2780	0.000840
265.9044	0.001705
266.5310	0.000545
267.1577	0.000946
267.7845	0.000503
268.4114	-0.000172
269.0385	0.000397
269.6657	0.000376
270.2931	-0.000974
270.9205	0.001072
271.5481	-0.001079
272.1758	-0.001122
272.8037	0.000081
273.4316	0.002211
274.0597	0.001347
274.6880	0.000693
275.3163	0.001473
275.9448	-0.000341
276.5734	-0.000489
277.2022	0.001030
277.8310	0.000608
278.4600	0.000650
279.0891	-0.000151
279.7184	0.001241
280.3477	0.000397
280.9772	0.000545
281.6069	0.000545
282.2366	0.000777
282.8665	-0.001670
283.4965	0.001347
284.1266	0.001009
284.7569	-0.000468
285.3873	0.000102
286.0178	0.001600
286.6484	0.000439
287.2792	0.000123
287.9101	0.000777
288.5411	-0.000447
289.1723	0.000777
289.8035	0.000355
290.4349	0.000967
291.0665	0.000587
291.6981	0.000524
292.3299	0.000756
292.9618	0.001030
293.5938	0.000165
294.2260	0.000629
294.8582	0.001072
295.4906	0.000925
296.1232	0.000376
296.7558	-0.000700
297.3886	0.000039
298.0215	0.001093
298.6545	0.000123
299.2877	0.000946
299.9210	0.001178
300.5544	0.001642
301.1879	0.000250
301.8215	0.001642
302.4553	0.000608
303.0892	0.000439
303.7233	0.000060
304.3574	0.000946
304.9917	0.001431
305.6261	-0.000151
306.2606	0.000250
306.8953	-0.000320
307.5301	0.001093
308.1650	-0.000088
308.8000	0.001178
309.4351	0.000566
310.0704	0.001558
310.7058	-0.000088
311.3413	0.000819
311.9770	-0.000046
312.6127	0.000376
313.2486	0.000819
313.8846	-0.000320
314.5208	0.000313
315.1570	0.000693
315.7934	-0.000025
316.4299	0.001009
317.0666	0.001389
317.7033	0.000461
318.3402	-0.000890
318.9772	0.001009
319.6143	0.000334
320.2516	0.000693
320.8890	0.000313
321.5265	0.001579
322.1641	-0.000362
322.8018	-0.000299
323.4397	-0.000046
324.0777	0.000186
324.7158	0.000165
325.3540	0.001389
325.9924	0.000250
326.6308	0.000081
327.2694	-0.000088
327.9082	0.000967
328.5470	-0.001164
329.1860	-0.000383
329.8251	0.000461
330.4643	0.001368
331.1036	-0.000995
331.7431	0.000018
332.3826	0.000418
333.0223	0.001621
333.6622	-0.000657
334.3021	0.000186
334.9422	-0.000510
335.5823	0.000144
336.2227	-0.000088
336.8631	-0.000447
337.5036	0.000186
338.1443	-0.000615
338.7851	-0.000151
339.4260	-0.000763
340.0670	-0.000109
340.7082	0.000798
341.3495	-0.000278
341.9909	0.000693
342.6324	0.000081
343.2740	0.001136
343.9158	0.000123
344.5577	0.000756
345.1997	0.000334
345.8418	-0.000425
346.4840	0.000081
347.1264	0.000988
347.7689	0.000988
348.4115	0.000334
349.0542	-0.001016
349.6971	0.001642
350.3400	-0.000826
350.9831	0.001431
351.6263	-0.000172
352.2696	0.000946
352.9131	0.000904
353.5566	-0.000278
354.2003	0.001009
354.8441	0.001726
355.4881	0.001431
356.1321	0.000186
356.7763	0.001726
357.4206	0.000207
358.0650	0.000882
358.7095	0.001030
359.3541	-0.000995
359.9989	0.001115
360.6438	0.000840
361.2888	0.001199
361.9339	-0.000826
362.5791	0.000482
363.2245	0.000229
363.8699	0.000882
364.5155	0.000081
365.1612	0.000545
365.8071	0.000693
366.4530	0.000060
367.0991	0.000418
367.7453	0.001347
368.3916	0.000123
369.0380	0.001220
369.6845	0.000144
370.3312	0.000545
370.9780	-0.000067
371.6249	0.001621
372.2719	0.001072
372.9190	0.000355
373.5663	0.000946
374.2136	0.000144
374.8611	0.000882
375.5087	-0.000742
376.1564	0.002465
376.8043	-0.000214
377.4522	-0.000932
378.1003	-0.000088
378.7485	0.000693
379.3968	0.000524
380.0452	0.000461
380.6938	0.001473
381.3424	0.000207
381.9912	0.002148
382.6401	0.000418
383.2891	0.000967
383.9382	0.000650
384.5875	0.001051
385.2368	-0.000383
385.8863	0.000946
386.5359	0.000461
387.1856	-0.000447
387.8355	0.000461
388.4854	0.001684
389.1355	0.000060
389.7856	0.001811
390.4359	0.000545
391.0863	0.000461
391.7369	-0.000046
392.3875	0.002000
393.0383	0.001895
393.6891	0.001072
394.3401	0.002254
394.9912	0.001558
395.6425	0.001199
396.2938	0.003076
396.9453	0.001705
397.5968	0.004005
398.2485	0.002443
398.9003	0.003372
399.5522	0.003224
400.2043	0.004005
400.8564	0.003498
401.5087	0.004722
402.1610	0.004342
402.8135	0.004595
403.4661	0.005460
404.1189	0.005186
404.7717	0.005776
405.4246	0.006135
406.0777	0.006810
406.7309	0.007359
407.3842	0.005397
408.0376	0.006958
408.6911	0.007422
409.3448	0.007401
409.9985	0.007380
410.6524	0.006241
411.3064	0.007274
411.9605	0.007464
412.6147	0.008730
413.2690	0.008097
413.9234	0.009721
414.5780	0.008856
415.2326	0.008856
415.8874	0.008519
416.5423	0.009194
417.1973	0.009974
417.8524	0.011050
418.5077	0.010860
419.1630	0.011219
419.8185	0.010502
420.4741	0.013033
421.1298	0.011240
421.7856	0.014425
422.4415	0.014088
423.0975	0.014615
423.7536	0.013392
424.4099	0.014003
425.0663	0.013750
425.7228	0.013708
426.3793	0.013877
427.0361	0.014130
427.6929	0.015733
428.3498	0.014214
429.0068	0.016514
429.6640	0.018180
430.3213	0.016493
430.9787	0.017653
431.6362	0.015860
432.2938	0.014700
432.9515	0.015354
433.6093	0.016577
434.2673	0.019108
434.9253	0.017421
435.5835	0.015375
436.2418	0.016746
436.9001	0.015586
437.5586	0.015839
438.2173	0.017864
438.8760	0.019235
439.5348	0.017927
440.1938	0.017041
440.8528	0.017716
441.5120	0.023770
442.1713	0.020037
442.8307	0.020606
443.4902	0.020163
444.1498	0.021598
444.8095	0.018349
445.4694	0.019847
446.1293	0.019256
446.7894	0.021155
447.4496	0.017505
448.1098	0.017590
448.7702	0.017569
449.4307	0.018244
450.0914	0.017758
450.7521	0.017400
451.4129	0.017273
452.0739	0.015058
452.7349	0.015670
453.3961	0.016767
454.0574	0.016282
454.7188	0.014657
455.3803	0.013286
456.0419	0.013244
456.7036	0.015227
457.3654	0.013582
458.0274	0.013814
458.6894	0.014446
459.3516	0.013413
460.0138	0.014573
460.6762	0.014826
461.3387	0.012590
462.0013	0.013328
462.6640	0.012210
463.3268	0.013075
463.9897	0.013202
464.6528	0.010945
465.3159	0.012295
465.9792	0.011915
466.6425	0.011388
467.3060	0.009468
467.9696	0.008814
468.6333	0.009109
469.2970	0.008624
469.9610	0.008139
470.6250	0.007359
471.2891	0.009679
471.9533	0.007717
472.6177	0.006895
473.2821	0.008181
473.9467	0.007886
474.6113	0.007991
475.2761	0.006051
475.9410	0.007548
476.6060	0.007000
477.2711	0.007042
477.9363	0.006051
478.6016	0.005312
479.2670	0.005629
479.9325	0.006009
480.5982	0.007105
481.2639	0.005755
481.9298	0.006051
482.5957	0.003161
483.2618	0.005629
483.9280	0.005692
484.5943	0.005882
485.2606	0.005017
485.9271	0.016767
486.5937	0.010291
487.2605	0.007654
487.9273	0.005123
488.5942	0.005291
489.2612	0.003540
489.9284	0.005502
490.5956	0.002929
491.2630	0.003667
491.9304	0.003308
492.5980	0.004448
493.2657	0.004426
493.9334	0.004490
494.6013	0.002633
495.2693	0.003836
495.9374	0.001579
496.6056	0.003878
497.2739	0.004321
497.9423	0.004131
498.6109	0.002654
499.2795	0.003055
499.9482	0.003604
500.6171	0.003477
501.2860	0.003308
501.9551	0.002802
502.6242	0.002443
503.2935	0.003414
503.9628	0.003161
504.6323	0.002190
505.3019	0.001937
505.9716	0.001895
506.6414	0.002190
507.3113	0.002971
507.9813	0.002022
508.6514	0.002929
509.3216	0.002633
509.9919	0.002908
510.6623	0.002908
511.3329	0.003562
512.0035	0.002317
512.6742	0.002886
513.3451	0.001979
514.0160	0.001874
514.6871	0.002823
515.3582	0.003308
516.0295	0.004068
516.7008	0.002781
517.3723	0.002422
518.0439	0.004258
518.7155	0.002317
519.3873	0.003772
520.0592	0.002739
520.7312	0.002169
521.4033	0.002865
522.0755	0.001979
522.7478	0.001579
523.4202	0.002570
524.0927	0.003287
524.7653	0.003836
525.4380	0.003182
526.1108	0.002823
526.7837	0.003540
527.4568	0.004005
528.1299	0.004637
528.8031	0.004426
529.4765	0.005924
530.1499	0.005144
530.8234	0.005144
531.4971	0.004258
532.1708	0.004384
532.8447	0.005418
533.5186	0.005966
534.1927	0.004912
534.8668	0.006262
535.5411	0.006705
536.2155	0.006979
536.8899	0.005629
537.5645	0.006578
538.2392	0.007105
538.9139	0.008582
539.5888	0.007907
540.2638	0.007485
540.9389	0.008624
541.6140	0.008709
542.2893	0.009848
542.9647	0.009637
543.6402	0.011135
544.3158	0.012126
544.9915	0.012843
545.6673	0.012232
546.3432	0.011831
547.0192	0.012506
547.6953	0.014236
548.3715	0.016197
549.0478	0.014594
549.7242	0.013961
550.4007	0.012738
551.0773	0.015206
551.7540	0.013075
552.4308	0.018665
553.1077	0.016936
553.7847	0.018307
554.4618	0.016915
555.1390	0.018687
555.8163	0.019847
556.4937	0.021872
557.1712	0.019003
557.8488	0.021956
558.5266	0.020395
559.2044	0.019657
559.8823	0.022209
560.5603	0.023222
561.2384	0.026175
561.9166	0.028011
562.5949	0.025458
563.2733	0.026492
563.9519	0.029698
564.6305	0.028918
565.3092	0.032462
565.9880	0.030668
566.6669	0.032377
567.3459	0.039739
568.0250	0.043494
568.7043	0.050920
569.3836	0.061319
570.0630	0.079988
570.7425	0.083574
571.4221	0.093763
572.1018	0.107285
572.7816	0.094987
573.4615	0.109943
574.1415	0.124435
574.8216	0.133358
575.5018	0.137556
576.1821	0.119752
576.8626	0.140931
577.5431	0.153167
578.2237	0.189007
578.9044	0.154517
579.5851	0.157955
580.2660	0.162554
580.9470	0.162427
581.6281	0.248431
582.3093	0.235922
582.9906	0.187847
583.6720	0.150487
584.3535	0.149855
585.0351	0.176919
585.7167	0.181877
586.3985	0.160908
587.0804	0.168292
587.7624	0.178755
588.4445	0.156183
589.1266	0.137620
589.8089	0.127410
590.4913	0.118128
591.1737	0.104901
591.8563	0.102539
592.5389	0.120322
593.2217	0.160381
593.9046	0.156521
594.5875	0.134160
595.2705	0.153546
595.9537	0.135848
596.6369	0.115132
597.3203	0.120132
598.0037	0.113825
598.6872	0.119921
599.3709	0.145551
600.0546	0.143800
600.7384	0.143611
601.4223	0.145383
602.1064	0.132578
602.7905	0.135257
603.4747	0.154242
604.1590	0.139771
604.8434	0.128359
605.5279	0.132979
606.2125	0.138527
606.8972	0.124731
607.5819	0.127494
608.2668	0.119837
608.9518	0.114457
609.6369	0.105682
610.3220	0.121925
611.0073	0.111863
611.6927	0.112137
612.3781	0.106188
613.0637	0.103425
613.7493	0.102771
614.4351	0.101632
615.1209	0.100577
615.8068	0.108931
616.4929	0.094248
617.1790	0.088785
617.8652	0.090325
618.5515	0.082140
619.2379	0.074082
619.9244	0.076761
620.6110	0.076233
621.2977	0.060265
621.9845	0.067163
622.6714	0.067922
623.3584	0.069378
624.0454	0.072225
624.7326	0.074947
625.4199	0.069103
626.1072	0.063956
626.7947	0.055054
627.4822	0.055982
628.1698	0.052059
628.8576	0.048283
629.5454	0.050983
630.2333	0.049274
630.9213	0.046026
631.6094	0.041195
632.2976	0.042250
632.9859	0.037292
633.6743	0.036554
634.3628	0.034444
635.0514	0.032293
635.7400	0.035119
636.4288	0.037820
637.1177	0.034508
637.8066	0.033305
638.4957	0.036132
639.1848	0.032504
639.8740	0.032799
640.5633	0.031383
641.2528	0.029470
641.9423	0.026052
642.6319	0.023367
643.3216	0.025393
644.0113	0.024859
644.7012	0.021565
645.3912	0.023071
646.0812	0.021979
646.7714	0.021227
647.4616	0.020424
648.1520	0.023212
648.8424	0.028723
649.5329	0.028996
650.2236	0.024872
650.9143	0.022950
651.6051	0.024276
652.2960	0.024882
652.9870	0.025531
653.6780	0.027402
654.3692	0.027995
655.0605	0.047303
655.7518	0.790090
656.4433	1.000000
657.1348	0.707511
657.8264	0.426673
658.5181	0.320524
659.2099	0.239224
659.9018	0.058500
660.5938	0.023109
661.2859	0.018685
661.9781	0.019334
662.6704	0.019432
663.3627	0.019260
664.0552	0.018113
664.7477	0.018037
665.4403	0.020420
666.1330	0.019785
666.8259	0.017692
667.5188	0.018374
668.2117	0.016486
668.9048	0.017590
669.5980	0.019362
670.2913	0.020142
670.9846	0.018497
671.6781	0.021935
672.3716	0.029466
673.0652	0.027441
673.7589	0.024720
674.4527	0.022568
675.1466	0.022441
675.8406	0.021513
676.5347	0.019551
677.2288	0.020374
677.9231	0.023306
678.6174	0.027230
679.3119	0.027441
680.0064	0.031343
680.7010	0.030584
681.3957	0.028960
682.0905	0.026703
682.7854	0.025585
683.4803	0.023517
684.1754	0.026871
684.8705	0.031048
685.5658	0.037588
686.2611	0.036491
686.9565	0.035246
687.6520	0.035963
688.3476	0.031196
689.0433	0.030479
689.7390	0.030816
690.4349	0.029086
691.1308	0.033411
691.8269	0.032440
692.5230	0.031175
693.2192	0.031343
693.9155	0.030858
694.6119	0.026808
695.3083	0.028686
696.0049	0.023454
696.7016	0.029297
697.3983	0.033727
698.0951	0.032019
698.7920	0.031365
699.4890	0.030964
700.1861	0.025479
700.8833	0.025922
701.5806	0.023960
702.2779	0.024804
702.9753	0.025458
703.6729	0.023559
704.3705	0.023285
705.0682	0.019573
705.7660	0.020269
706.4638	0.025374
707.1618	0.032504
707.8599	0.031597
708.5580	0.031491
709.2562	0.026871
709.9545	0.027314
710.6529	0.028074
711.3514	0.027926
712.0500	0.024087
712.7486	0.024656
713.4474	0.023644
714.1462	0.028158
714.8451	0.029529
715.5441	0.029972
716.2432	0.026154
716.9424	0.025310
717.6416	0.022610
718.3410	0.024213
719.0404	0.022294
719.7399	0.024171
720.4395	0.024614
721.1392	0.025690
721.8390	0.024867
722.5388	0.025711
723.2388	0.022484
723.9388	0.023370
724.6389	0.022357
725.3391	0.025817
726.0394	0.027778
726.7398	0.028032
727.4403	0.026513
728.1408	0.028390
728.8414	0.028686
729.5421	0.030985
730.2429	0.030626
730.9438	0.035710
731.6448	0.035710
732.3458	0.034487
733.0470	0.036343
733.7482	0.036385
734.4495	0.044254
735.1509	0.038009
735.8524	0.038242
736.5539	0.040689
737.2556	0.039908
737.9573	0.035605
738.6591	0.032651
739.3610	0.038347
740.0630	0.037946
740.7651	0.034297
741.4672	0.030605
742.1695	0.028179
742.8718	0.030078
743.5742	0.025859
744.2767	0.024340
744.9792	0.026260
745.6819	0.023306
746.3846	0.023834
747.0874	0.024066
747.7903	0.025563
748.4933	0.021998
749.1964	0.025395
749.8995	0.031048
750.6028	0.033959
751.3061	0.032187
752.0095	0.035415
752.7130	0.031280
753.4166	0.032567
754.1202	0.034381
754.8239	0.035584
755.5278	0.036427
756.2317	0.035520
756.9356	0.039254
757.6397	0.050266
758.3438	0.045604
759.0481	0.044971
759.7524	0.052333
760.4568	0.053451
761.1613	0.051595
761.8658	0.040098
762.5705	0.039549
763.2752	0.040351
763.9800	0.041068
764.6849	0.046679
765.3898	0.048072
766.0949	0.042165
766.8000	0.035309
767.5052	0.032926
768.2105	0.033727
768.9159	0.038242
769.6214	0.040921
770.3269	0.039486
771.0325	0.041279
771.7382	0.038516
772.4440	0.032546
773.1499	0.032356
773.8558	0.031470
774.5618	0.025774
775.2679	0.026914
775.9741	0.023138
776.6804	0.022948
777.3868	0.019868
778.0932	0.021745
778.7997	0.023602
779.5063	0.026703
780.2130	0.024066
780.9197	0.026133
781.6265	0.029993
782.3335	0.028390
783.0405	0.028517
783.7475	0.030647
784.4547	0.027589
785.1619	0.023264
785.8692	0.023475
786.5766	0.024720
787.2841	0.023876
787.9917	0.024108
788.6993	0.026323
789.4070	0.023834
790.1148	0.021851
790.8227	0.020817
791.5306	0.019636
792.2387	0.019066
792.9468	0.017083
793.6550	0.019319
794.3632	0.025774
795.0716	0.026133
795.7800	0.025310
796.4885	0.020437
797.1971	0.020121
797.9058	0.020838
798.6145	0.019277
799.3233	0.019868
800.0322	0.017020
800.7412	0.015607
801.4503	0.015607
802.1594	0.013328
802.8686	0.014594
803.5779	0.014636
804.2873	0.014974
804.9968	0.016029
805.7063	0.015965
806.4159	0.021134
807.1256	0.017948
807.8354	0.019868
808.5452	0.018665
809.2551	0.018560
809.9651	0.017062
810.6752	0.014193
811.3853	0.016915
812.0956	0.013328
812.8059	0.011873
813.5163	0.013708
814.2267	0.015902
814.9373	0.015860
815.6479	0.012316
816.3586	0.012527
817.0694	0.012907
817.7802	0.011852
818.4912	0.011367
819.2022	0.012316
819.9133	0.009700
820.6244	0.012611
821.3357	0.013582
822.0470	0.012611
822.7584	0.011388
823.4698	0.010460
824.1814	0.009257
824.8930	0.009531
825.6047	0.010818
826.3165	0.010713
827.0283	0.010228
827.7402	0.012527
828.4522	0.011282
829.1643	0.009995
829.8765	0.009848
830.5887	0.009531
831.3010	0.008308
832.0134	0.008013
832.7259	0.006916
833.4384	0.008877
834.1510	0.010291
834.8637	0.009806
835.5765	0.007823
836.2893	0.008097
837.0022	0.005882
837.7152	0.004912
838.4283	0.006114
839.1414	0.004912
839.8546	0.006473
840.5679	0.006726
841.2813	0.007253
841.9947	0.005080
842.7082	0.005165
843.4218	0.004342
844.1355	0.005291
844.8492	0.004110
845.5631	0.004131
846.2770	0.004637
846.9909	0.004405
847.7050	0.004616
848.4191	0.004743
849.1333	0.003730
849.8475	0.003562
850.5619	0.004047
851.2763	0.002865
851.9908	0.004511
852.7053	0.008076
853.4200	0.009953
854.1347	0.013497
854.8495	0.012126
855.5643	0.011367
856.2792	0.009911
856.9942	0.009088
857.7093	0.010671
858.4245	0.008371
859.1397	0.006979
859.8550	0.007148
860.5704	0.007380
861.2858	0.004890
862.0013	0.005924
862.7169	0.005397
863.4326	0.004743
864.1483	0.005101
864.8642	0.004658
865.5800	0.003477
866.2960	0.004005
867.0120	0.003393
867.7281	0.003604
868.4443	0.005144
869.1606	0.004701
869.8769	0.003751
870.5933	0.004258
871.3097	0.004933
872.0263	0.002549
872.7429	0.003477
873.4596	0.003013
874.1763	0.003920
874.8932	0.002612
875.6101	0.004996
876.3270	0.005312
877.0441	0.005270
877.7612	0.007295
878.4784	0.006409
879.1957	0.006177
879.9130	0.005924
880.6304	0.005903
881.3479	0.007274
882.0654	0.004806
882.7831	0.005059
883.5007	0.005059
884.2185	0.004321
884.9363	0.005144
885.6542	0.005903
886.3722	0.004237
887.0903	0.005123
887.8084	0.004701
888.5266	0.004532
889.2448	0.005798
889.9632	0.005502
890.6816	0.003899
891.4001	0.002338
892.1186	0.004089
892.8372	0.004658
893.5559	0.004258
894.2747	0.002886
894.9935	0.004954
895.7124	0.002507
896.4314	0.005481
897.1504	0.002908
897.8695	0.004912
898.5887	0.003899
899.3079	0.003140
900.0272	0.004131
900.7466	0.002760
901.4661	0.004321
902.1856	0.004026
902.9052	0.003941
903.6249	0.003583
904.3446	0.003962
905.0644	0.003456
905.7843	0.003583
906.5043	0.003562
907.2243	0.004005
907.9444	0.003245
908.6645	0.003308
909.3847	0.001916
910.1050	0.002085
910.8254	0.002612
911.5458	0.003688
912.2663	0.005165
912.9869	0.004426
913.7075	0.003857
914.4283	0.002443
915.1490	0.002739
915.8699	0.002781
916.5908	0.003625
917.3118	0.004173
918.0328	0.005123
918.7539	0.002697
919.4751	0.002992
920.1964	0.004026
920.9177	0.005017
921.6391	0.001705
922.3606	0.003203
923.0821	0.002950
923.8037	0.002570
924.5254	0.002908
925.2471	0.003287
925.9689	0.002380
926.6908	0.002929
927.4127	0.002528
928.1347	0.002929
928.8568	0.001199
929.5789	0.002507
930.3011	0.001747
931.0234	0.003983
931.7457	0.001389
932.4681	0.001663
933.1906	0.001030
933.9131	0.002127
934.6358	0.002106
935.3584	0.002507
936.0812	0.001663
936.8040	0.001536
937.5269	0.001157
938.2498	0.001874
938.9728	0.001473
939.6959	0.000503
940.4190	0.002148
941.1422	0.002190
941.8655	0.001304
942.5889	0.000482
943.3123	0.001684
944.0357	0.001747
944.7593	0.002338
945.4829	0.001325
946.2066	0.000777
946.9303	0.001494
947.6541	0.001157
948.3780	-0.000636
949.1019	0.002338
949.8259	0.001220
950.5500	0.001874
951.2741	0.001093
951.9983	0.001579
952.7226	0.000925
953.4469	0.000587
954.1713	0.001579
954.8958	0.002043
955.6203	0.000608
956.3449	0.001621
957.0696	0.002000
957.7943	0.000735
958.5191	0.000271
959.2439	0.000524
959.9688	0.001241
960.6938	0.000355
961.4189	0.000904
962.1440	0.000861
962.8692	-0.000700
963.5944	0.000292
964.3197	0.001199
965.0451	0.000693
965.7705	0.000587
966.4960	0.001009
967.2216	-0.000257
967.9472	0.001347
968.6729	0.000355
969.3987	0.001431
970.1245	0.001093
970.8504	0.000714
971.5763	-0.000404
972.3023	-0.000130
973.0284	0.000946
973.7545	-0.000236
974.4807	0.000756
975.2070	0.000819
975.9333	0.000081
976.6597	0.000967
977.3862	-0.000847
978.1127	0.000714
978.8393	0.000081
979.5659	0.001157
980.2926	0.001262
981.0194	0.001241
981.7462	0.000925
982.4731	0.000608
983.2001	-0.001185
983.9271	0.000397
984.6542	0.000545
985.3814	0.000355
986.1086	0.000186
986.8358	0.001136
987.5632	0.001030
988.2906	0.001473
989.0180	0.000524
989.7456	0.001790
990.4732	-0.000067
991.2008	0.000461
991.9285	0.001368
992.6563	0.001093
993.3841	-0.000088
994.1120	0.001536
994.8400	0.000545
995.5680	0.001389
996.2961	-0.000193
997.0242	0.000629
997.7524	-0.000236
998.4807	0.000798
999.2090	0.000165
999.9374	0.000418
1000.67	0.000292
1001.39	0.000397
1002.12	0.000840
1002.85	0.000250
1003.58	0.000503
1004.31	0.001431
1005.04	-0.000447
1005.77	0.000925
1006.5	-0.000151
1007.22	0.000545
1007.95	0.000271
1008.68	-0.000784
1009.41	-0.000320
1010.14	0.000144
1010.87	0.001347
1011.6	-0.000257
1012.33	-0.001122
1013.06	-0.000826
1013.79	0.000397
1014.52	-0.000700
1015.25	0.000461
1015.98	0.001347
1016.71	0.002000
1017.44	0.000777
1018.17	0.000018
1018.9	-0.001438
1019.63	0.000355
1020.36	-0.001100
1021.09	0.000566
1021.82	-0.001058
1022.55	-0.000763
1023.03	0.000524