File: Auto_Polymerization/Spectra/MRG-061-F-4_spectra_while_stopped_with_alu_foil/spectrum_2025-06-20_08-51-19.txt
# Wavelength (nm)	Intensity (a.u.)
197.7802	0.000158
198.3922	-0.000475
199.0044	0.001023
199.6168	0.000453
200.2292	-0.000306
200.8418	0.000074
201.4546	0.000327
202.0674	-0.000475
202.6805	0.000981
203.2936	-0.000011
203.9069	0.000875
204.5203	-0.001044
205.1338	0.001149
205.7475	-0.000116
206.3614	-0.000981
206.9753	-0.000685
207.5894	0.001761
208.2036	0.000369
208.8180	0.000685
209.4325	0.000475
210.0471	0.000200
210.6618	-0.000011
211.2767	0.001888
211.8918	0.000221
212.5069	-0.000074
213.1222	-0.000348
213.7376	0.000538
214.3532	0.000095
214.9689	0.001002
215.5847	0.000116
216.2007	0.001803
216.8168	0.000306
217.4330	0.000960
218.0494	0.000243
218.6659	0.001171
219.2825	0.000411
219.8992	-0.000095
220.5161	0.000306
221.1332	0.000559
221.7503	0.000158
222.3676	0.000200
222.9850	0.001930
223.6026	-0.000411
224.2203	0.000074
224.8381	-0.000559
225.4561	0.000685
226.0742	0.000622
226.6924	0.000390
227.3107	0.002120
227.9292	-0.001403
228.5478	0.001213
229.1666	-0.000643
229.7855	0.001128
230.4045	0.000770
231.0236	0.000981
231.6429	0.001445
232.2623	0.001023
232.8818	0.001107
233.5015	0.001002
234.1213	0.000812
234.7413	0.000411
235.3613	0.000306
235.9815	0.001171
236.6018	-0.000432
237.2223	0.000643
237.8429	0.000538
238.4636	0.001508
239.0845	0.000369
239.7055	0.000095
240.3266	0.001171
240.9478	-0.000475
241.5692	-0.000306
242.1907	0.001086
242.8124	-0.000559
243.4341	0.000095
244.0560	-0.001381
244.6781	0.000622
245.3002	0.000601
245.9225	-0.001171
246.5449	0.000685
247.1675	0.001656
247.7902	-0.000032
248.4130	0.000116
249.0359	0.000812
249.6590	0.000601
250.2822	-0.001255
250.9056	0.001171
251.5290	-0.000327
252.1526	0.001171
252.7763	0.000622
253.4002	-0.000411
254.0242	-0.000095
254.6483	-0.000243
255.2725	0.000116
255.8969	0.001698
256.5214	-0.000348
257.1460	0.001192
257.7708	0.000369
258.3957	0.000960
259.0207	-0.000475
259.6459	0.000685
260.2711	-0.000179
260.8965	0.000728
261.5221	-0.000475
262.1477	0.001128
262.7735	-0.000390
263.3995	0.001255
264.0255	0.000453
264.6517	-0.000116
265.2780	-0.000285
265.9044	0.000559
266.5310	0.001107
267.1577	-0.000243
267.7845	-0.000896
268.4114	0.000432
269.0385	0.000327
269.6657	0.001508
270.2931	0.000622
270.9205	0.001339
271.5481	-0.000285
272.1758	0.000770
272.8037	-0.000348
273.4316	-0.000116
274.0597	-0.000137
274.6880	0.000601
275.3163	0.000264
275.9448	-0.001171
276.5734	0.000728
277.2022	0.001466
277.8310	0.000475
278.4600	-0.000812
279.0891	0.000348
279.7184	0.000264
280.3477	-0.000580
280.9772	0.000875
281.6069	-0.001128
282.2366	0.001360
282.8665	-0.000749
283.4965	0.000264
284.1266	-0.000432
284.7569	-0.000074
285.3873	-0.000580
286.0178	0.002331
286.6484	-0.000601
287.2792	-0.000264
287.9101	0.000475
288.5411	-0.000158
289.1723	0.000896
289.8035	0.001128
290.4349	0.001297
291.0665	0.001107
291.6981	0.000179
292.3299	0.000285
292.9618	-0.000200
293.5938	0.000200
294.2260	0.000496
294.8582	-0.001023
295.4906	-0.000200
296.1232	0.002331
296.7558	0.000179
297.3886	0.000243
298.0215	0.001107
298.6545	0.000285
299.2877	0.000158
299.9210	0.000538
300.5544	-0.000074
301.1879	-0.000032
301.8215	0.000285
302.4553	-0.000453
303.0892	0.000622
303.7233	0.000770
304.3574	0.000475
304.9917	-0.000137
305.6261	-0.000875
306.2606	0.000960
306.8953	0.000833
307.5301	-0.000285
308.1650	-0.000179
308.8000	0.001234
309.4351	0.000517
310.0704	0.000559
310.7058	0.001487
311.3413	0.000939
311.9770	0.001529
312.6127	0.001930
313.2486	0.000285
313.8846	0.000981
314.5208	0.000348
315.1570	0.001403
315.7934	-0.000116
316.4299	-0.001255
317.0666	-0.000348
317.7033	0.000685
318.3402	0.000622
318.9772	0.000939
319.6143	-0.000137
320.2516	0.000854
320.8890	0.000264
321.5265	0.000791
322.1641	0.000685
322.8018	-0.000411
323.4397	0.001149
324.0777	0.000517
324.7158	0.000517
325.3540	0.000243
325.9924	0.000601
326.6308	0.002942
327.2694	0.001023
327.9082	-0.000601
328.5470	-0.001107
329.1860	0.001424
329.8251	-0.000095
330.4643	0.000517
331.1036	0.000580
331.7431	0.000517
332.3826	0.000285
333.0223	0.000875
333.6622	0.000411
334.3021	-0.000306
334.9422	0.000369
335.5823	0.000390
336.2227	-0.001065
336.8631	0.000158
337.5036	0.001023
338.1443	-0.000264
338.7851	-0.000243
339.4260	0.001065
340.0670	0.000791
340.7082	0.000960
341.3495	-0.001656
341.9909	0.001192
342.6324	0.000643
343.2740	0.000601
343.9158	0.000243
344.5577	0.000011
345.1997	0.000053
345.8418	0.000348
346.4840	-0.000137
347.1264	-0.000053
347.7689	-0.000517
348.4115	-0.000728
349.0542	0.001761
349.6971	0.002056
350.3400	-0.000200
350.9831	0.001845
351.6263	0.000601
352.2696	0.000728
352.9131	0.000622
353.5566	0.001065
354.2003	0.000559
354.8441	0.000411
355.4881	0.000306
356.1321	0.001761
356.7763	-0.000011
357.4206	0.002099
358.0650	0.000896
358.7095	0.000939
359.3541	-0.000285
359.9989	0.000200
360.6438	0.000580
361.2888	0.001149
361.9339	0.000896
362.5791	0.001065
363.2245	-0.000411
363.8699	0.000580
364.5155	0.000833
365.1612	0.001023
365.8071	0.000664
366.4530	0.000833
367.0991	0.001635
367.7453	0.000939
368.3916	-0.000538
369.0380	0.000960
369.6845	-0.000137
370.3312	-0.001360
370.9780	-0.001487
371.6249	-0.000179
372.2719	-0.000369
372.9190	0.000875
373.5663	0.000538
374.2136	0.001888
374.8611	-0.000158
375.5087	0.000011
376.1564	0.000812
376.8043	-0.000517
377.4522	0.000116
378.1003	0.000939
378.7485	-0.000053
379.3968	0.000432
380.0452	0.000158
380.6938	0.002309
381.3424	-0.000221
381.9912	0.001845
382.6401	-0.000327
383.2891	0.000833
383.9382	0.000221
384.5875	0.000601
385.2368	-0.000306
385.8863	0.002099
386.5359	0.000411
387.1856	0.001381
387.8355	0.001782
388.4854	0.002478
389.1355	0.000369
389.7856	0.002963
390.4359	0.003027
391.0863	0.003132
391.7369	0.002626
392.3875	0.003891
393.0383	0.004292
393.6891	0.007013
394.3401	0.006232
394.9912	0.005832
395.6425	0.007856
396.2938	0.007414
396.9453	0.009438
397.5968	0.009248
398.2485	0.012454
398.9003	0.013214
399.5522	0.012686
400.2043	0.013530
400.8564	0.013699
401.5087	0.012918
402.1610	0.013108
402.8135	0.014690
403.4661	0.013846
404.1189	0.016398
404.7717	0.017031
405.4246	0.016968
406.0777	0.019815
406.7309	0.017284
407.3842	0.015576
408.0376	0.017326
408.6911	0.019077
409.3448	0.017537
409.9985	0.019541
410.6524	0.020722
411.3064	0.018613
411.9605	0.018550
412.6147	0.022051
413.2690	0.021629
413.9234	0.020089
414.5780	0.022620
415.2326	0.021439
415.8874	0.023886
416.5423	0.020912
417.1973	0.022388
417.8524	0.021798
418.5077	0.021798
419.1630	0.022451
419.8185	0.022747
420.4741	0.023801
421.1298	0.025995
421.7856	0.027682
422.4415	0.028715
423.0975	0.025130
423.7536	0.027218
424.4099	0.025742
425.0663	0.026121
425.7228	0.025235
426.3793	0.023105
427.0361	0.022810
427.6929	0.024413
428.3498	0.024265
429.0068	0.023063
429.6640	0.024856
430.3213	0.026775
430.9787	0.027323
431.6362	0.024982
432.2938	0.022747
432.9515	0.020912
433.6093	0.022578
434.2673	0.025404
434.9253	0.024582
435.5835	0.025257
436.2418	0.020532
436.9001	0.024139
437.5586	0.022008
438.2173	0.022747
438.8760	0.025151
439.5348	0.023886
440.1938	0.023717
440.8528	0.021987
441.5120	0.027577
442.1713	0.027113
442.8307	0.024202
443.4902	0.024476
444.1498	0.027513
444.8095	0.025025
445.4694	0.023126
446.1293	0.023126
446.7894	0.026796
447.4496	0.023295
448.1098	0.023843
448.7702	0.023232
449.4307	0.021713
450.0914	0.021017
450.7521	0.020764
451.4129	0.021376
452.0739	0.019562
452.7349	0.019667
453.3961	0.017790
454.0574	0.019119
454.7188	0.018233
455.3803	0.015787
456.0419	0.018339
456.7036	0.015386
457.3654	0.014859
458.0274	0.017748
458.6894	0.016314
459.3516	0.013825
460.0138	0.016904
460.6762	0.016567
461.3387	0.015934
462.0013	0.014142
462.6640	0.012939
463.3268	0.011020
463.9897	0.013256
464.6528	0.012602
465.3159	0.013678
465.9792	0.014859
466.6425	0.012581
467.3060	0.009333
467.9696	0.011273
468.6333	0.011547
469.2970	0.010577
469.9610	0.008004
470.6250	0.009712
471.2891	0.007920
471.9533	0.009248
472.6177	0.007329
473.2821	0.007646
473.9467	0.008426
474.6113	0.009417
475.2761	0.008574
475.9410	0.008088
476.6060	0.006464
477.2711	0.006886
477.9363	0.005347
478.6016	0.007624
479.2670	0.006528
479.9325	0.008110
480.5982	0.005937
481.2639	0.006064
481.9298	0.005832
482.5957	0.004840
483.2618	0.007160
483.9280	0.006169
484.5943	0.005747
485.2606	0.005853
485.9271	0.011906
486.5937	0.014627
487.2605	0.008004
487.9273	0.005452
488.5942	0.004629
489.2612	0.005494
489.9284	0.004988
490.5956	0.004693
491.2630	0.003069
491.9304	0.003976
492.5980	0.003301
493.2657	0.004397
493.9334	0.003638
494.6013	0.004144
495.2693	0.004735
495.9374	0.004883
496.6056	0.004925
497.2739	0.004165
497.9423	0.003385
498.6109	0.005009
499.2795	0.004081
499.9482	0.002773
500.6171	0.002942
501.2860	0.002647
501.9551	0.002752
502.6242	0.003406
503.2935	0.003849
503.9628	0.001803
504.6323	0.001487
505.3019	0.003554
505.9716	0.002626
506.6414	0.002689
507.3113	0.002436
507.9813	0.000875
508.6514	0.003807
509.3216	0.003807
509.9919	0.002837
510.6623	0.003132
511.3329	0.002752
512.0035	0.002225
512.6742	0.001951
513.3451	0.003322
514.0160	0.003322
514.6871	0.002984
515.3582	0.001782
516.0295	0.001698
516.7008	0.001403
517.3723	0.003385
518.0439	0.001466
518.7155	0.002689
519.3873	0.004292
520.0592	0.000179
520.7312	0.002478
521.4033	0.002647
522.0755	0.003322
522.7478	0.002816
523.4202	0.003955
524.0927	0.002120
524.7653	0.003680
525.4380	0.003322
526.1108	0.002541
526.7837	0.002710
527.4568	0.003659
528.1299	0.004102
528.8031	0.004777
529.4765	0.003512
530.1499	0.004608
530.8234	0.004756
531.4971	0.003343
532.1708	0.004798
532.8447	0.006296
533.5186	0.005389
534.1927	0.006380
534.8668	0.006865
535.5411	0.008320
536.2155	0.005368
536.8899	0.005811
537.5645	0.006422
538.2392	0.007435
538.9139	0.006549
539.5888	0.008869
540.2638	0.009080
540.9389	0.008531
541.6140	0.009712
542.2893	0.010894
542.9647	0.009291
543.6402	0.011484
544.3158	0.011379
544.9915	0.012728
545.6673	0.011083
546.3432	0.011379
547.0192	0.012496
547.6953	0.013382
548.3715	0.017031
549.0478	0.018296
549.7242	0.015913
550.4007	0.017136
551.0773	0.015555
551.7540	0.015702
552.4308	0.018634
553.1077	0.018992
553.7847	0.018613
554.4618	0.018866
555.1390	0.018149
555.8163	0.020005
556.4937	0.020722
557.1712	0.021629
557.8488	0.020785
558.5266	0.022831
559.2044	0.021017
559.8823	0.022557
560.5603	0.026796
561.2384	0.027598
561.9166	0.029053
562.5949	0.027809
563.2733	0.028104
563.9519	0.028715
564.6305	0.033229
565.3092	0.033798
565.9880	0.032533
566.6669	0.036287
567.3459	0.036477
568.0250	0.046769
568.7043	0.049089
569.3836	0.060943
570.0630	0.078996
570.7425	0.087306
571.4221	0.100847
572.1018	0.109452
572.7816	0.106457
573.4615	0.102850
574.1415	0.130416
574.8216	0.138389
575.5018	0.149419
576.1821	0.130733
576.8626	0.141531
577.5431	0.155156
578.2237	0.209128
578.9044	0.182216
579.5851	0.160260
580.2660	0.171797
580.9470	0.165491
581.6281	0.244751
582.3093	0.264851
582.9906	0.217501
583.6720	0.170721
584.3535	0.153258
585.0351	0.175615
585.7167	0.195967
586.3985	0.180318
587.0804	0.165196
587.7624	0.183587
588.4445	0.169688
589.1266	0.152878
589.8089	0.133348
590.4913	0.124384
591.1737	0.111456
591.8563	0.107554
592.5389	0.108503
593.2217	0.166313
593.9046	0.167136
594.5875	0.141595
595.2705	0.160260
595.9537	0.151402
596.6369	0.126156
597.3203	0.118141
598.0037	0.120103
598.6872	0.115379
599.3709	0.157919
600.0546	0.148576
600.7384	0.151022
601.4223	0.153827
602.1064	0.135246
602.7905	0.138684
603.4747	0.147753
604.1590	0.150938
604.8434	0.134002
605.5279	0.131640
606.2125	0.142185
606.8972	0.126704
607.5819	0.131387
608.2668	0.125291
608.9518	0.118331
609.6369	0.108777
610.3220	0.122423
611.0073	0.117024
611.6927	0.112025
612.3781	0.108545
613.0637	0.105276
613.7493	0.102471
614.4351	0.104875
615.1209	0.103357
615.8068	0.110591
616.4929	0.097704
617.1790	0.091356
617.8652	0.092685
618.5515	0.087834
619.2379	0.075854
619.9244	0.071973
620.6110	0.079798
621.2977	0.064148
621.9845	0.062482
622.6714	0.070434
623.3584	0.072986
624.0454	0.074146
624.7326	0.072374
625.4199	0.072290
626.1072	0.065351
626.7947	0.061807
627.4822	0.056977
628.1698	0.055691
628.8576	0.047592
629.5454	0.052148
630.2333	0.051452
630.9213	0.046010
631.6094	0.043880
632.2976	0.042825
632.9859	0.039345
633.6743	0.035633
634.3628	0.035507
635.0514	0.032427
635.7400	0.033587
636.4288	0.037447
637.1177	0.037426
637.8066	0.033334
638.4957	0.034305
639.1848	0.035760
639.8740	0.032361
640.5633	0.031412
641.2528	0.028338
641.9423	0.026443
642.6319	0.023735
643.3216	0.026179
644.0113	0.025893
644.7012	0.023516
645.3912	0.021515
646.0812	0.022257
646.7714	0.020150
647.4616	0.021233
648.1520	0.024100
648.8424	0.025727
649.5329	0.026311
650.2236	0.027425
650.9143	0.024064
651.6051	0.021132
652.2960	0.025758
652.9870	0.025923
653.6780	0.026983
654.3692	0.028597
655.0605	0.033432
655.7518	0.388934
656.4433	1.000000
657.1348	0.885060
657.8264	0.493867
658.5181	0.355249
659.2099	0.284900
659.9018	0.097174
660.5938	0.027732
661.2859	0.020450
661.9781	0.018054
662.6704	0.018128
663.3627	0.019208
664.0552	0.017912
664.7477	0.016559
665.4403	0.020055
666.1330	0.020761
666.8259	0.018502
667.5188	0.018026
668.2117	0.017082
668.9048	0.018064
669.5980	0.019246
670.2913	0.017537
670.9846	0.017326
671.6781	0.021945
672.3716	0.028230
673.0652	0.028947
673.7589	0.025109
674.4527	0.023696
675.1466	0.020722
675.8406	0.021734
676.5347	0.021102
677.2288	0.019246
677.9231	0.023084
678.6174	0.025109
679.3119	0.024582
680.0064	0.030339
680.7010	0.027429
681.3957	0.028041
682.0905	0.028737
682.7854	0.024118
683.4803	0.023654
684.1754	0.028547
684.8705	0.030656
685.5658	0.035022
686.2611	0.035233
686.9565	0.036983
687.6520	0.037131
688.3476	0.032470
689.0433	0.030550
689.7390	0.029285
690.4349	0.029137
691.1308	0.026859
691.8269	0.032512
692.5230	0.029454
693.2192	0.029812
693.9155	0.029960
694.6119	0.028568
695.3083	0.028230
696.0049	0.026986
696.7016	0.025910
697.3983	0.033946
698.0951	0.032006
698.7920	0.033313
699.4890	0.027640
700.1861	0.027998
700.8833	0.026206
701.5806	0.022536
702.2779	0.024434
702.9753	0.023358
703.6729	0.023337
704.3705	0.022979
705.0682	0.022430
705.7660	0.019372
706.4638	0.022599
707.1618	0.028483
707.8599	0.030677
708.5580	0.028104
709.2562	0.028188
709.9545	0.026459
710.6529	0.029749
711.3514	0.025573
712.0500	0.023886
712.7486	0.023063
713.4474	0.024434
714.1462	0.026016
714.8451	0.026606
715.5441	0.028926
716.2432	0.026986
716.9424	0.023928
717.6416	0.023147
718.3410	0.024223
719.0404	0.022494
719.7399	0.024202
720.4395	0.022451
721.1392	0.022873
721.8390	0.026037
722.5388	0.024582
723.2388	0.023633
723.9388	0.022789
724.6389	0.021713
725.3391	0.024919
726.0394	0.027429
726.7398	0.028969
727.4403	0.027091
728.1408	0.028969
728.8414	0.029897
729.5421	0.028505
730.2429	0.030086
730.9438	0.033440
731.6448	0.035823
732.3458	0.033208
733.0470	0.032217
733.7482	0.036034
734.4495	0.041708
735.1509	0.040400
735.8524	0.039577
736.5539	0.040231
737.2556	0.038755
737.9573	0.037300
738.6591	0.035022
739.3610	0.035254
740.0630	0.036941
740.7651	0.033208
741.4672	0.029833
742.1695	0.027113
742.8718	0.028969
743.5742	0.026332
744.2767	0.026121
744.9792	0.024666
745.6819	0.024793
746.3846	0.022894
747.0874	0.021355
747.7903	0.026121
748.4933	0.023907
749.1964	0.023485
749.8995	0.028462
750.6028	0.033334
751.3061	0.032891
752.0095	0.032174
752.7130	0.032891
753.4166	0.027914
754.1202	0.035422
754.8239	0.034262
755.5278	0.034326
756.2317	0.034537
756.9356	0.039830
757.6397	0.047592
758.3438	0.047170
759.0481	0.042762
759.7524	0.050313
760.4568	0.051388
761.1613	0.051852
761.8658	0.045272
762.5705	0.038143
763.2752	0.038565
763.9800	0.040780
764.6849	0.046010
765.3898	0.046685
766.0949	0.043732
766.8000	0.035465
767.5052	0.031436
768.2105	0.034009
768.9159	0.038460
769.6214	0.039704
770.3269	0.035697
771.0325	0.038333
771.7382	0.039620
772.4440	0.034663
773.1499	0.033377
773.8558	0.030002
774.5618	0.028062
775.2679	0.026016
775.9741	0.024350
776.6804	0.020321
777.3868	0.021038
778.0932	0.020321
778.7997	0.021587
779.5063	0.025889
780.2130	0.023886
780.9197	0.021186
781.6265	0.029243
782.3335	0.028083
783.0405	0.027977
783.7475	0.026248
784.4547	0.028378
785.1619	0.021439
785.8692	0.022705
786.5766	0.024075
787.2841	0.020870
787.9917	0.023970
788.6993	0.024497
789.4070	0.025193
790.1148	0.023063
790.8227	0.021397
791.5306	0.019878
792.2387	0.019056
792.9468	0.018992
793.6550	0.018845
794.3632	0.024075
795.0716	0.025995
795.7800	0.026163
796.4885	0.020996
797.1971	0.018465
797.9058	0.019246
798.6145	0.020258
799.3233	0.018824
800.0322	0.018803
800.7412	0.015829
801.4503	0.016588
802.1594	0.015006
802.8686	0.014226
803.5779	0.015133
804.2873	0.014120
804.9968	0.013931
805.7063	0.014015
806.4159	0.018318
807.1256	0.019688
807.8354	0.017706
808.5452	0.020068
809.2551	0.018908
809.9651	0.015217
810.6752	0.016208
811.3853	0.015470
812.0956	0.014479
812.8059	0.010261
813.5163	0.012370
814.2267	0.014985
814.9373	0.013931
815.6479	0.012496
816.3586	0.012939
817.0694	0.012054
817.7802	0.013614
818.4912	0.011758
819.2022	0.011632
819.9133	0.009691
820.6244	0.012307
821.3357	0.011737
822.0470	0.013256
822.7584	0.012328
823.4698	0.008974
824.1814	0.009987
824.8930	0.008299
825.6047	0.011779
826.3165	0.010556
827.0283	0.009248
827.7402	0.009459
828.4522	0.009649
829.1643	0.010113
829.8765	0.009860
830.5887	0.009860
831.3010	0.007118
832.0134	0.006317
832.7259	0.006781
833.4384	0.010092
834.1510	0.007688
834.8637	0.009987
835.5765	0.008658
836.2893	0.007013
837.0022	0.006043
837.7152	0.005220
838.4283	0.005304
839.1414	0.005410
839.8546	0.007181
840.5679	0.006401
841.2813	0.005368
841.9947	0.006169
842.7082	0.004798
843.4218	0.004861
844.1355	0.003554
844.8492	0.006338
845.5631	0.004587
846.2770	0.005747
846.9909	0.004313
847.7050	0.005009
848.4191	0.003491
849.1333	0.003427
849.8475	0.003343
850.5619	0.004587
851.2763	0.003786
851.9908	0.004229
852.7053	0.004566
853.4200	0.010134
854.1347	0.011674
854.8495	0.013340
855.5643	0.010282
856.2792	0.010134
856.9942	0.009206
857.7093	0.009586
858.4245	0.009206
859.1397	0.007582
859.8550	0.008700
860.5704	0.008299
861.2858	0.005747
862.0013	0.006169
862.7169	0.005536
863.4326	0.005874
864.1483	0.005030
864.8642	0.004651
865.5800	0.005136
866.2960	0.003701
867.0120	0.005009
867.7281	0.003512
868.4443	0.004756
869.1606	0.004840
869.8769	0.003027
870.5933	0.003048
871.3097	0.003554
872.0263	0.004440
872.7429	0.004419
873.4596	0.003955
874.1763	0.003933
874.8932	0.004608
875.6101	0.006021
876.3270	0.003891
877.0441	0.005283
877.7612	0.003723
878.4784	0.004819
879.1957	0.005136
879.9130	0.006612
880.6304	0.006380
881.3479	0.005494
882.0654	0.006190
882.7831	0.005431
883.5007	0.004208
884.2185	0.005494
884.9363	0.005093
885.6542	0.005199
886.3722	0.005283
887.0903	0.004419
887.8084	0.005283
888.5266	0.005009
889.2448	0.003891
889.9632	0.003912
890.6816	0.003765
891.4001	0.002963
892.1186	0.005115
892.8372	0.005093
893.5559	0.005621
894.2747	0.004714
894.9935	0.003976
895.7124	0.003828
896.4314	0.004165
897.1504	0.004798
897.8695	0.002858
898.5887	0.005262
899.3079	0.003153
900.0272	0.002141
900.7466	0.004060
901.4661	0.003259
902.1856	0.004904
902.9052	0.004693
903.6249	0.003469
904.3446	0.004861
905.0644	0.005431
905.7843	0.003448
906.5043	0.003849
907.2243	0.004608
907.9444	0.003933
908.6645	0.003132
909.3847	0.002415
910.1050	0.000960
910.8254	0.003153
911.5458	0.002984
912.2663	0.002858
912.9869	0.003701
913.7075	0.003828
914.4283	0.002900
915.1490	0.001782
915.8699	0.003786
916.5908	0.003322
917.3118	0.004123
918.0328	0.003427
918.7539	0.002752
919.4751	0.001360
920.1964	0.004208
920.9177	0.003638
921.6391	0.003005
922.3606	0.002584
923.0821	0.003132
923.8037	0.004503
924.5254	0.002795
925.2471	0.002225
925.9689	0.003301
926.6908	0.001065
927.4127	0.002900
928.1347	0.001171
928.8568	0.002689
929.5789	0.002099
930.3011	0.002816
931.0234	0.001318
931.7457	0.001403
932.4681	0.000685
933.1906	0.001930
933.9131	0.000707
934.6358	0.000939
935.3584	0.002099
936.0812	0.002183
936.8040	0.001002
937.5269	0.000475
938.2498	0.001993
938.9728	0.000053
939.6959	0.002120
940.4190	0.000939
941.1422	0.003280
941.8655	0.001845
942.5889	0.000981
943.3123	0.000643
944.0357	0.000158
944.7593	0.001086
945.4829	0.000960
946.2066	0.001360
946.9303	0.001065
947.6541	0.000496
948.3780	0.001803
949.1019	0.001888
949.8259	0.002352
950.5500	0.001044
951.2741	0.001044
951.9983	0.001149
952.7226	0.000728
953.4469	0.000390
954.1713	0.000812
954.8958	-0.000496
955.6203	0.001297
956.3449	0.001171
957.0696	0.002520
957.7943	-0.000074
958.5191	0.000770
959.2439	0.001677
959.9688	0.000580
960.6938	0.001128
961.4189	0.002984
962.1440	0.000917
962.8692	0.000390
963.5944	0.000032
964.3197	0.000622
965.0451	0.000158
965.7705	0.000053
966.4960	0.000791
967.2216	0.000432
967.9472	0.001571
968.6729	0.001213
969.3987	-0.000032
970.1245	0.001824
970.8504	-0.000221
971.5763	0.001550
972.3023	0.002035
973.0284	0.001255
973.7545	-0.000053
974.4807	0.000707
975.2070	0.000664
975.9333	0.000285
976.6597	0.000707
977.3862	-0.000053
978.1127	0.000264
978.8393	0.001107
979.5659	0.000917
980.2926	0.002752
981.0194	0.000770
981.7462	0.001592
982.4731	-0.000749
983.2001	0.000896
983.9271	-0.000179
984.6542	0.000221
985.3814	0.001381
986.1086	0.001445
986.8358	-0.000643
987.5632	0.000158
988.2906	0.000306
989.0180	0.001065
989.7456	-0.000074
990.4732	0.000707
991.2008	-0.000559
991.9285	0.002014
992.6563	-0.000622
993.3841	0.000601
994.1120	-0.000411
994.8400	0.000390
995.5680	-0.000327
996.2961	0.001592
997.0242	0.000200
997.7524	0.000917
998.4807	-0.000158
999.2090	0.000854
999.9374	0.001635
1000.67	0.001803
1001.39	-0.000917
1002.12	0.000475
1002.85	0.000601
1003.58	0.000011
1004.31	0.000896
1005.04	-0.000053
1005.77	0.000854
1006.5	-0.000728
1007.22	0.000158
1007.95	0.000664
1008.68	0.000538
1009.41	0.001107
1010.14	0.001529
1010.87	-0.000221
1011.6	0.001149
1012.33	0.000095
1013.06	0.000559
1013.79	0.000011
1014.52	-0.000221
1015.25	-0.000053
1015.98	0.002056
1016.71	0.000685
1017.44	0.001065
1018.17	0.001360
1018.9	0.001192
1019.63	0.001171
1020.36	0.001803
1021.09	0.000896
1021.82	-0.000011
1022.55	-0.000369
1023.03	-0.000664