File: Auto_Polymerization/Spectra/MRG-061-F-4_spectra_while_stopped_with_alu_foil/spectrum_2025-06-20_08-30-50.txt
# Wavelength (nm)	Intensity (a.u.)
197.7802	0.000232
198.3922	0.000422
199.0044	0.000590
199.6168	0.000443
200.2292	-0.000042
200.8418	0.000590
201.4546	-0.000105
202.0674	0.000464
202.6805	0.001392
203.2936	-0.000443
203.9069	0.001919
204.5203	0.000063
205.1338	0.000358
205.7475	0.000422
206.3614	0.000042
206.9753	-0.000084
207.5894	0.001033
208.2036	0.000780
208.8180	0.002045
209.4325	0.001581
210.0471	-0.000105
210.6618	0.000675
211.2767	0.000843
211.8918	0.000105
212.5069	0.000316
213.1222	-0.000843
213.7376	0.000654
214.3532	0.000422
214.9689	0.000063
215.5847	0.001455
216.2007	0.002594
216.8168	-0.000274
217.4330	0.000780
218.0494	-0.000127
218.6659	0.000654
219.2825	0.000190
219.8992	0.001181
220.5161	0.000422
221.1332	0.001750
221.7503	-0.000042
222.3676	0.000717
222.9850	0.000127
223.6026	0.000232
224.2203	0.000084
224.8381	0.002340
225.4561	0.000190
226.0742	0.000717
226.6924	0.000991
227.3107	0.000949
227.9292	-0.000886
228.5478	0.001624
229.1666	-0.000443
229.7855	0.002277
230.4045	0.000822
231.0236	-0.000696
231.6429	0.000485
232.2623	0.001139
232.8818	0.000527
233.5015	0.001033
234.1213	0.000443
234.7413	0.001160
235.3613	0.000422
235.9815	0.000211
236.6018	0.001581
237.2223	0.000127
237.8429	-0.000337
238.4636	0.000527
239.0845	0.000380
239.7055	0.000865
240.3266	0.001771
240.9478	0.001012
241.5692	0.000548
242.1907	-0.000169
242.8124	0.000148
243.4341	0.002340
244.0560	-0.000316
244.6781	0.001687
245.3002	-0.000654
245.9225	0.001118
246.5449	0.000907
247.1675	0.001054
247.7902	-0.000211
248.4130	0.000295
249.0359	0.000738
249.6590	0.001349
250.2822	-0.000506
250.9056	0.000401
251.5290	-0.001075
252.1526	0.002214
252.7763	0.000253
253.4002	0.002256
254.0242	0.001792
254.6483	0.001708
255.2725	0.001328
255.8969	0.000148
256.5214	-0.000801
257.1460	0.001371
257.7708	-0.000654
258.3957	0.000717
259.0207	0.000654
259.6459	-0.000042
260.2711	0.000337
260.8965	0.000148
261.5221	-0.000169
262.1477	0.000422
262.7735	0.000337
263.3995	0.002066
264.0255	0.000759
264.6517	0.001666
265.2780	0.001581
265.9044	0.001096
266.5310	0.001033
267.1577	0.002172
267.7845	0.000527
268.4114	0.001307
269.0385	-0.000211
269.6657	0.000569
270.2931	-0.000021
270.9205	0.000548
271.5481	0.000886
272.1758	-0.000063
272.8037	0.000970
273.4316	0.002910
274.0597	-0.000801
274.6880	0.000401
275.3163	0.000928
275.9448	0.000843
276.5734	-0.000105
277.2022	0.002404
277.8310	0.000105
278.4600	-0.000211
279.0891	-0.000358
279.7184	-0.000148
280.3477	0.000127
280.9772	0.001476
281.6069	0.000295
282.2366	0.001940
282.8665	0.000063
283.4965	0.000949
284.1266	-0.000991
284.7569	0.000485
285.3873	0.000548
286.0178	0.000084
286.6484	0.002024
287.2792	0.001856
287.9101	0.000865
288.5411	0.002362
289.1723	-0.000907
289.8035	0.001181
290.4349	0.001118
291.0665	0.000949
291.6981	0.000780
292.3299	0.001982
292.9618	0.000780
293.5938	0.000759
294.2260	0.000063
294.8582	0.000633
295.4906	0.000021
296.1232	0.000527
296.7558	0.000295
297.3886	0.001455
298.0215	0.000401
298.6545	-0.000042
299.2877	-0.000084
299.9210	0.000675
300.5544	0.000295
301.1879	-0.000654
301.8215	-0.000105
302.4553	0.001497
303.0892	-0.000738
303.7233	0.000211
304.3574	0.001645
304.9917	-0.000696
305.6261	0.000190
306.2606	-0.000401
306.8953	0.000358
307.5301	-0.000042
308.1650	0.001160
308.8000	0.000590
309.4351	0.001476
310.0704	0.000169
310.7058	-0.000506
311.3413	0.001139
311.9770	-0.000738
312.6127	0.002362
313.2486	-0.000337
313.8846	0.000759
314.5208	0.000148
315.1570	0.000464
315.7934	0.000527
316.4299	0.001160
317.0666	0.000801
317.7033	0.000928
318.3402	-0.000127
318.9772	0.001328
319.6143	0.000443
320.2516	0.001455
320.8890	0.000907
321.5265	0.001455
322.1641	-0.000169
322.8018	0.000274
323.4397	0.000148
324.0777	0.000590
324.7158	0.000485
325.3540	0.000274
325.9924	0.000169
326.6308	0.001877
327.2694	0.000696
327.9082	0.001181
328.5470	0.002172
329.1860	0.001581
329.8251	0.000822
330.4643	0.000169
331.1036	0.000042
331.7431	0.000717
332.3826	0.000380
333.0223	0.001813
333.6622	0.000548
334.3021	0.002446
334.9422	0.000759
335.5823	0.001708
336.2227	0.000506
336.8631	0.000590
337.5036	0.001223
338.1443	0.000590
338.7851	0.000148
339.4260	0.002952
340.0670	-0.001244
340.7082	0.001033
341.3495	0.000042
341.9909	0.000886
342.6324	0.000316
343.2740	0.001118
343.9158	0.000886
344.5577	0.001096
345.1997	0.001560
345.8418	0.001033
346.4840	-0.000401
347.1264	0.001223
347.7689	0.000358
348.4115	0.000717
349.0542	-0.000970
349.6971	-0.000337
350.3400	0.000569
350.9831	0.001181
351.6263	0.000105
352.2696	0.001497
352.9131	0.001139
353.5566	0.001813
354.2003	0.002003
354.8441	0.001919
355.4881	-0.000548
356.1321	0.001012
356.7763	0.000633
357.4206	0.000127
358.0650	-0.000464
358.7095	0.000759
359.3541	0.000611
359.9989	0.001497
360.6438	0.000738
361.2888	0.000949
361.9339	0.000042
362.5791	0.000042
363.2245	0.000907
363.8699	0.001244
364.5155	0.000928
365.1612	0.001624
365.8071	0.000991
366.4530	-0.001033
367.0991	0.001560
367.7453	0.000464
368.3916	0.001434
369.0380	0.002045
369.6845	0.001328
370.3312	0.000970
370.9780	0.000590
371.6249	0.000527
372.2719	0.000696
372.9190	0.001012
373.5663	0.001919
374.2136	-0.000506
374.8611	0.001012
375.5087	-0.000148
376.1564	0.001307
376.8043	0.001075
377.4522	0.000105
378.1003	0.001033
378.7485	-0.001666
379.3968	0.001792
380.0452	0.001624
380.6938	0.001708
381.3424	0.001624
381.9912	0.001539
382.6401	0.000401
383.2891	0.001645
383.9382	0.001729
384.5875	0.002615
385.2368	-0.000506
385.8863	0.001666
386.5359	0.000654
387.1856	0.000949
387.8355	0.001223
388.4854	0.001645
389.1355	0.003521
389.7856	0.002340
390.4359	0.002973
391.0863	0.003015
391.7369	0.004512
392.3875	0.004365
393.0383	0.005841
393.6891	0.006642
394.3401	0.007380
394.9912	0.008497
395.6425	0.006916
396.2938	0.009320
396.9453	0.010458
397.5968	0.011239
398.2485	0.012588
398.9003	0.014465
399.5522	0.011428
400.2043	0.014675
400.8564	0.013010
401.5087	0.015624
402.1610	0.015034
402.8135	0.017079
403.4661	0.015983
404.1189	0.017311
404.7717	0.017838
405.4246	0.019968
406.0777	0.020601
406.7309	0.019251
407.3842	0.019757
408.0376	0.018640
408.6911	0.021739
409.3448	0.021360
409.9985	0.022351
410.6524	0.021507
411.3064	0.021085
411.9605	0.019609
412.6147	0.021971
413.2690	0.021676
413.9234	0.022498
414.5780	0.024522
415.2326	0.020622
415.8874	0.021676
416.5423	0.021233
417.1973	0.022751
417.8524	0.024565
418.5077	0.022941
419.1630	0.021718
419.8185	0.023046
420.4741	0.025935
421.1298	0.026673
421.7856	0.028065
422.4415	0.028740
423.0975	0.028529
423.7536	0.028002
424.4099	0.026167
425.0663	0.026083
425.7228	0.025745
426.3793	0.022308
427.0361	0.022351
427.6929	0.025914
428.3498	0.024818
429.0068	0.022351
429.6640	0.024775
430.3213	0.027938
430.9787	0.029836
431.6362	0.026230
432.2938	0.022962
432.9515	0.022920
433.6093	0.023637
434.2673	0.030595
434.9253	0.023658
435.5835	0.025492
436.2418	0.023173
436.9001	0.024501
437.5586	0.025640
438.2173	0.022772
438.8760	0.025556
439.5348	0.024312
440.1938	0.021697
440.8528	0.022962
441.5120	0.025893
442.1713	0.027032
442.8307	0.025429
443.4902	0.027158
444.1498	0.026884
444.8095	0.023721
445.4694	0.024712
446.1293	0.023173
446.7894	0.023806
447.4496	0.025682
448.1098	0.023384
448.7702	0.020790
449.4307	0.023004
450.0914	0.022646
450.7521	0.021613
451.4129	0.020643
452.0739	0.020495
452.7349	0.019167
453.3961	0.019525
454.0574	0.018661
454.7188	0.017353
455.3803	0.017016
456.0419	0.018344
456.7036	0.017817
457.3654	0.014654
458.0274	0.017480
458.6894	0.017290
459.3516	0.016953
460.0138	0.016109
460.6762	0.016468
461.3387	0.014633
462.0013	0.015730
462.6640	0.012862
463.3268	0.014992
463.9897	0.013537
464.6528	0.014444
465.3159	0.014549
465.9792	0.015329
466.6425	0.013684
467.3060	0.011745
467.9696	0.011618
468.6333	0.012293
469.2970	0.010416
469.9610	0.008982
470.6250	0.009889
471.2891	0.006600
471.9533	0.008772
472.6177	0.007738
473.2821	0.009299
473.9467	0.007970
474.6113	0.009235
475.2761	0.008413
475.9410	0.007612
476.6060	0.008540
477.2711	0.008118
477.9363	0.006515
478.6016	0.006726
479.2670	0.005777
479.9325	0.007717
480.5982	0.007232
481.2639	0.008413
481.9298	0.004786
482.5957	0.006663
483.2618	0.006452
483.9280	0.006115
484.5943	0.005820
485.2606	0.004175
485.9271	0.012208
486.5937	0.013832
487.2605	0.010248
487.9273	0.006220
488.5942	0.004365
489.2612	0.005545
489.9284	0.004470
490.5956	0.004533
491.2630	0.004428
491.9304	0.003627
492.5980	0.004238
493.2657	0.005018
493.9334	0.003247
494.6013	0.003943
495.2693	0.004576
495.9374	0.003121
496.6056	0.003816
497.2739	0.003310
497.9423	0.002910
498.6109	0.004344
499.2795	0.002467
499.9482	0.003163
500.6171	0.003353
501.2860	0.002910
501.9551	0.003627
502.6242	0.005588
503.2935	0.004238
503.9628	0.003901
504.6323	0.003521
505.3019	0.003310
505.9716	0.003289
506.6414	0.002804
507.3113	0.003374
507.9813	0.001834
508.6514	0.003648
509.3216	0.001919
509.9919	0.002825
510.6623	0.002678
511.3329	0.002973
512.0035	0.003036
512.6742	0.002362
513.3451	0.002256
514.0160	0.002214
514.6871	0.004006
515.3582	0.003690
516.0295	0.002678
516.7008	0.003353
517.3723	0.002720
518.0439	0.002636
518.7155	0.001961
519.3873	0.004069
520.0592	0.002636
520.7312	0.003838
521.4033	0.002636
522.0755	0.004027
522.7478	0.002130
523.4202	0.002973
524.0927	0.004112
524.7653	0.004238
525.4380	0.002678
526.1108	0.003289
526.7837	0.004323
527.4568	0.004512
528.1299	0.003774
528.8031	0.004702
529.4765	0.004913
530.1499	0.002488
530.8234	0.004407
531.4971	0.004533
532.1708	0.004829
532.8447	0.004681
533.5186	0.005862
534.1927	0.006494
534.8668	0.006579
535.5411	0.007064
536.2155	0.007317
536.8899	0.006621
537.5645	0.007274
538.2392	0.007865
538.9139	0.009025
539.5888	0.007865
540.2638	0.008961
540.9389	0.008076
541.6140	0.010838
542.2893	0.009995
542.9647	0.011871
543.6402	0.010290
544.3158	0.010437
544.9915	0.013242
545.6673	0.011618
546.3432	0.013453
547.0192	0.012230
547.6953	0.014444
548.3715	0.015941
549.0478	0.016573
549.7242	0.017585
550.4007	0.017480
551.0773	0.015076
551.7540	0.015456
552.4308	0.018597
553.1077	0.019293
553.7847	0.020094
554.4618	0.020305
555.1390	0.018260
555.8163	0.022161
556.4937	0.023911
557.1712	0.020643
557.8488	0.022013
558.5266	0.022540
559.2044	0.021781
559.8823	0.021845
560.5603	0.025661
561.2384	0.028065
561.9166	0.029224
562.5949	0.028824
563.2733	0.027980
563.9519	0.031565
564.6305	0.032493
565.3092	0.034559
565.9880	0.033863
566.6669	0.034580
567.3459	0.039577
568.0250	0.047611
568.7043	0.051090
569.3836	0.059883
570.0630	0.076709
570.7425	0.089424
571.4221	0.101864
572.1018	0.110045
572.7816	0.104036
573.4615	0.101948
574.1415	0.129402
574.8216	0.145785
575.5018	0.150993
576.1821	0.131953
576.8626	0.147704
577.5431	0.157509
578.2237	0.213533
578.9044	0.177645
579.5851	0.164741
580.2660	0.173302
580.9470	0.166639
581.6281	0.248303
582.3093	0.263590
582.9906	0.213153
583.6720	0.170750
584.3535	0.157192
585.0351	0.173133
585.7167	0.197845
586.3985	0.180175
587.0804	0.168389
587.7624	0.187977
588.4445	0.172058
589.1266	0.157572
589.8089	0.136128
590.4913	0.128474
591.1737	0.116624
591.8563	0.108843
592.5389	0.108126
593.2217	0.169042
593.9046	0.169569
594.5875	0.142538
595.2705	0.158521
595.9537	0.149644
596.6369	0.125416
597.3203	0.119365
598.0037	0.124931
598.6872	0.118015
599.3709	0.156686
600.0546	0.147704
600.7384	0.154514
601.4223	0.158521
602.1064	0.144246
602.7905	0.137583
603.4747	0.151288
604.1590	0.154282
604.8434	0.130730
605.5279	0.127251
606.2125	0.144604
606.8972	0.127609
607.5819	0.130013
608.2668	0.127082
608.9518	0.119534
609.6369	0.109961
610.3220	0.124130
611.0073	0.119976
611.6927	0.115211
612.3781	0.110889
613.0637	0.106271
613.7493	0.104015
614.4351	0.106756
615.1209	0.103108
615.8068	0.104816
616.4929	0.100578
617.1790	0.091764
617.8652	0.089845
618.5515	0.086408
619.2379	0.075191
619.9244	0.072724
620.6110	0.079809
621.2977	0.066925
621.9845	0.065597
622.6714	0.068148
623.3584	0.074685
624.0454	0.072703
624.7326	0.073947
625.4199	0.073673
626.1072	0.066862
626.7947	0.059967
627.4822	0.058828
628.1698	0.056087
628.8576	0.048792
629.5454	0.052334
630.2333	0.052545
630.9213	0.047084
631.6094	0.043120
632.2976	0.046240
632.9859	0.037385
633.6743	0.037026
634.3628	0.038144
635.0514	0.034180
635.7400	0.035297
636.4288	0.038312
637.1177	0.037321
637.8066	0.035592
638.4957	0.035930
639.1848	0.035634
639.8740	0.033616
640.5633	0.032839
641.2528	0.028933
641.9423	0.028692
642.6319	0.024265
643.3216	0.025989
644.0113	0.026572
644.7012	0.023164
645.3912	0.023064
646.0812	0.024243
646.7714	0.022087
647.4616	0.020175
648.1520	0.023096
648.8424	0.026254
649.5329	0.028089
650.2236	0.027596
650.9143	0.024811
651.6051	0.024438
652.2960	0.025994
652.9870	0.027013
653.6780	0.026665
654.3692	0.027690
655.0605	0.033967
655.7518	0.398105
656.4433	1.000000
657.1348	0.896265
657.8264	0.500219
658.5181	0.362609
659.2099	0.294089
659.9018	0.098892
660.5938	0.026766
661.2859	0.019716
661.9781	0.017489
662.6704	0.017752
663.3627	0.020393
664.0552	0.020433
664.7477	0.020381
665.4403	0.020143
666.1330	0.020409
666.8259	0.017014
667.5188	0.018580
668.2117	0.017611
668.9048	0.016257
669.5980	0.018155
670.2913	0.017923
670.9846	0.020052
671.6781	0.021317
672.3716	0.026715
673.0652	0.028297
673.7589	0.026568
674.4527	0.025155
675.1466	0.020369
675.8406	0.021064
676.5347	0.022182
677.2288	0.020052
677.9231	0.023447
678.6174	0.024480
679.3119	0.025324
680.0064	0.028276
680.7010	0.030848
681.3957	0.026399
682.0905	0.028697
682.7854	0.027748
683.4803	0.026441
684.1754	0.025577
684.8705	0.030131
685.5658	0.037279
686.2611	0.036183
686.9565	0.035318
687.6520	0.037553
688.3476	0.034011
689.0433	0.029984
689.7390	0.032514
690.4349	0.029351
691.1308	0.028276
691.8269	0.032219
692.5230	0.031860
693.2192	0.030764
693.9155	0.030152
694.6119	0.029456
695.3083	0.029583
696.0049	0.025513
696.7016	0.023890
697.3983	0.034939
698.0951	0.032661
698.7920	0.031713
699.4890	0.029393
700.1861	0.028065
700.8833	0.025745
701.5806	0.024101
702.2779	0.025408
702.9753	0.024607
703.6729	0.023089
704.3705	0.023468
705.0682	0.022393
705.7660	0.020685
706.4638	0.024860
707.1618	0.028212
707.8599	0.030300
708.5580	0.032282
709.2562	0.030005
709.9545	0.028655
710.6529	0.029267
711.3514	0.029393
712.0500	0.024628
712.7486	0.024501
713.4474	0.023679
714.1462	0.027643
714.8451	0.030173
715.5441	0.029309
716.2432	0.026610
716.9424	0.023299
717.6416	0.024080
718.3410	0.023131
719.0404	0.023510
719.7399	0.024185
720.4395	0.025218
721.1392	0.025071
721.8390	0.025303
722.5388	0.024754
723.2388	0.021739
723.9388	0.025113
724.6389	0.021634
725.3391	0.025682
726.0394	0.028655
726.7398	0.029246
727.4403	0.026694
728.1408	0.026863
728.8414	0.029203
729.5421	0.026800
730.2429	0.029583
730.9438	0.034939
731.6448	0.035613
732.3458	0.037279
733.0470	0.034960
733.7482	0.034896
734.4495	0.044301
735.1509	0.038671
735.8524	0.038502
736.5539	0.039767
737.2556	0.040547
737.9573	0.035403
738.6591	0.032957
739.3610	0.037195
740.0630	0.040020
740.7651	0.033568
741.4672	0.031038
742.1695	0.026779
742.8718	0.028318
743.5742	0.025788
744.2767	0.025556
744.9792	0.025239
745.6819	0.025113
746.3846	0.024101
747.0874	0.021992
747.7903	0.025661
748.4933	0.025830
749.1964	0.022351
749.8995	0.029161
750.6028	0.032851
751.3061	0.032788
752.0095	0.033948
752.7130	0.032113
753.4166	0.030722
754.1202	0.037764
754.8239	0.033252
755.5278	0.033336
756.2317	0.039388
756.9356	0.041201
757.6397	0.047379
758.3438	0.049930
759.0481	0.044069
759.7524	0.047590
760.4568	0.051006
761.1613	0.052229
761.8658	0.049804
762.5705	0.039873
763.2752	0.040821
763.9800	0.042382
764.6849	0.047253
765.3898	0.047906
766.0949	0.045144
766.8000	0.036478
767.5052	0.033484
768.2105	0.032682
768.9159	0.037996
769.6214	0.037068
770.3269	0.038017
771.0325	0.037722
771.7382	0.038734
772.4440	0.034517
773.1499	0.033399
773.8558	0.031417
774.5618	0.030005
775.2679	0.026336
775.9741	0.022793
776.6804	0.022688
777.3868	0.021929
778.0932	0.019863
778.7997	0.022456
779.5063	0.026062
780.2130	0.025387
780.9197	0.021866
781.6265	0.031649
782.3335	0.028718
783.0405	0.031017
783.7475	0.028318
784.4547	0.027706
785.1619	0.023784
785.8692	0.024965
786.5766	0.022456
787.2841	0.023447
787.9917	0.024565
788.6993	0.023468
789.4070	0.028086
790.1148	0.024459
790.8227	0.022456
791.5306	0.020221
792.2387	0.019799
792.9468	0.018450
793.6550	0.019125
794.3632	0.025471
795.0716	0.028128
795.7800	0.026083
796.4885	0.021528
797.1971	0.018682
797.9058	0.020537
798.6145	0.017796
799.3233	0.019947
800.0322	0.017585
800.7412	0.014971
801.4503	0.016278
802.1594	0.013621
802.8686	0.014844
803.5779	0.017691
804.2873	0.015962
804.9968	0.014718
805.7063	0.016130
806.4159	0.018387
807.1256	0.020116
807.8354	0.019567
808.5452	0.020495
809.2551	0.019251
809.9651	0.016995
810.6752	0.015877
811.3853	0.016173
812.0956	0.013790
812.8059	0.012483
813.5163	0.013305
814.2267	0.017627
814.9373	0.014971
815.6479	0.011618
816.3586	0.013178
817.0694	0.011196
817.7802	0.011618
818.4912	0.012440
819.2022	0.012187
819.9133	0.011028
820.6244	0.011702
821.3357	0.012398
822.0470	0.012462
822.7584	0.011281
823.4698	0.010775
824.1814	0.009488
824.8930	0.009868
825.6047	0.011492
826.3165	0.011555
827.0283	0.011955
827.7402	0.011934
828.4522	0.008877
829.1643	0.010332
829.8765	0.010458
830.5887	0.009868
831.3010	0.008012
832.0134	0.006199
832.7259	0.006283
833.4384	0.009425
834.1510	0.007485
834.8637	0.009299
835.5765	0.007464
836.2893	0.008413
837.0022	0.007949
837.7152	0.007485
838.4283	0.005799
839.1414	0.006199
839.8546	0.007190
840.5679	0.006431
841.2813	0.006368
841.9947	0.005567
842.7082	0.005124
843.4218	0.006220
844.1355	0.005756
844.8492	0.004533
845.5631	0.003901
846.2770	0.005103
846.9909	0.005588
847.7050	0.004280
848.4191	0.003838
849.1333	0.005714
849.8475	0.004829
850.5619	0.003901
851.2763	0.004512
851.9908	0.004386
852.7053	0.007085
853.4200	0.009320
854.1347	0.010775
854.8495	0.011787
855.5643	0.009004
856.2792	0.010733
856.9942	0.010226
857.7093	0.010437
858.4245	0.008645
859.1397	0.006726
859.8550	0.007738
860.5704	0.008350
861.2858	0.004744
862.0013	0.006747
862.7169	0.006473
863.4326	0.005777
864.1483	0.006726
864.8642	0.006916
865.5800	0.004344
866.2960	0.005335
867.0120	0.004554
867.7281	0.003606
868.4443	0.005651
869.1606	0.003964
869.8769	0.005039
870.5933	0.004280
871.3097	0.003711
872.0263	0.003985
872.7429	0.003437
873.4596	0.005292
874.1763	0.003163
874.8932	0.004597
875.6101	0.004006
876.3270	0.005799
877.0441	0.004027
877.7612	0.004681
878.4784	0.006220
879.1957	0.006305
879.9130	0.007274
880.6304	0.007443
881.3479	0.007781
882.0654	0.005482
882.7831	0.005841
883.5007	0.007296
884.2185	0.005672
884.9363	0.004259
885.6542	0.005419
886.3722	0.007169
887.0903	0.005714
887.8084	0.003922
888.5266	0.004955
889.2448	0.005229
889.9632	0.005208
890.6816	0.004660
891.4001	0.004091
892.1186	0.003922
892.8372	0.004470
893.5559	0.005271
894.2747	0.002804
894.9935	0.002889
895.7124	0.004765
896.4314	0.002699
897.1504	0.005061
897.8695	0.005187
898.5887	0.004280
899.3079	0.004154
900.0272	0.004344
900.7466	0.004217
901.4661	0.004829
902.1856	0.003142
902.9052	0.004112
903.6249	0.004027
904.3446	0.003816
905.0644	0.004238
905.7843	0.004723
906.5043	0.004238
907.2243	0.004850
907.9444	0.003374
908.6645	0.003774
909.3847	0.003838
910.1050	0.004428
910.8254	0.004323
911.5458	0.002594
912.2663	0.003268
912.9869	0.004491
913.7075	0.003247
914.4283	0.003732
915.1490	0.003964
915.8699	0.003458
916.5908	0.002087
917.3118	0.003268
918.0328	0.003205
918.7539	0.003310
919.4751	0.003606
920.1964	0.003816
920.9177	0.003563
921.6391	0.002741
922.3606	0.002383
923.0821	0.002678
923.8037	0.002615
924.5254	0.003753
925.2471	0.003606
925.9689	0.001581
926.6908	0.001982
927.4127	0.002783
928.1347	0.002151
928.8568	0.002741
929.5789	0.002720
930.3011	0.002214
931.0234	0.001708
931.7457	0.004323
932.4681	0.002172
933.1906	0.001602
933.9131	0.002319
934.6358	0.004091
935.3584	0.001581
936.0812	0.002973
936.8040	0.002973
937.5269	0.002678
938.2498	0.000822
938.9728	0.001708
939.6959	0.003163
940.4190	0.000274
941.1422	0.002003
941.8655	0.002340
942.5889	0.001708
943.3123	0.001982
944.0357	0.000527
944.7593	0.000548
945.4829	0.002868
946.2066	0.001371
946.9303	0.001666
947.6541	0.000822
948.3780	0.000865
949.1019	0.000822
949.8259	0.000590
950.5500	0.002087
951.2741	0.000907
951.9983	0.002193
952.7226	0.001581
953.4469	0.000084
954.1713	0.001729
954.8958	0.000759
955.6203	0.002298
956.3449	0.002657
957.0696	0.002172
957.7943	-0.000084
958.5191	0.002066
959.2439	-0.000654
959.9688	0.001244
960.6938	0.001054
961.4189	0.001307
962.1440	0.001265
962.8692	0.001160
963.5944	-0.000316
964.3197	0.001476
965.0451	0.000274
965.7705	0.001139
966.4960	0.003100
967.2216	0.001645
967.9472	0.001371
968.6729	0.000401
969.3987	0.000822
970.1245	0.000907
970.8504	-0.000253
971.5763	0.001476
972.3023	0.002003
973.0284	0.001392
973.7545	0.001771
974.4807	0.001096
975.2070	0.001054
975.9333	0.000886
976.6597	0.000401
977.3862	0.000865
978.1127	0.000316
978.8393	0.001455
979.5659	0.001012
980.2926	0.001602
981.0194	0.000084
981.7462	0.001497
982.4731	0.001096
983.2001	0.002024
983.9271	0.000780
984.6542	0.001118
985.3814	0.000801
986.1086	-0.000042
986.8358	0.000991
987.5632	-0.001434
988.2906	0.001392
989.0180	0.001581
989.7456	-0.000105
990.4732	0.000337
991.2008	0.000865
991.9285	0.001497
992.6563	0.001518
993.3841	0.000611
994.1120	-0.000211
994.8400	0.001961
995.5680	0.001075
996.2961	0.000548
997.0242	0.000148
997.7524	0.000928
998.4807	-0.000991
999.2090	0.003247
999.9374	0.001581
1000.67	-0.000105
1001.39	0.000443
1002.12	0.000886
1002.85	0.001033
1003.58	0.000717
1004.31	0.000443
1005.04	0.001033
1005.77	0.001286
1006.5	-0.000105
1007.22	0.000506
1007.95	0.001708
1008.68	0.001054
1009.41	-0.000422
1010.14	0.000633
1010.87	0.000148
1011.6	0.001139
1012.33	0.000148
1013.06	0.000886
1013.79	0.000443
1014.52	0.000949
1015.25	0.000485
1015.98	0.000148
1016.71	-0.000042
1017.44	0.000337
1018.17	0.000675
1018.9	0.000127
1019.63	0.001160
1020.36	0.000358
1021.09	-0.001497
1021.82	-0.000843
1022.55	-0.000295
1023.03	0.000928