File: Auto_Polymerization/Spectra/MRG-061-F-4_spectra_while_stopped_with_alu_foil/spectrum_2025-06-20_08-35-57.txt
# Wavelength (nm)	Intensity (a.u.)
197.7802	0.001302
198.3922	-0.000448
199.0044	0.000606
199.6168	-0.000596
200.2292	0.000691
200.8418	-0.001060
201.4546	0.002588
202.0674	0.000543
202.6805	0.000691
203.2936	0.000248
203.9069	0.000670
204.5203	0.000691
205.1338	-0.000069
205.7475	0.000564
206.3614	0.000648
206.9753	0.000712
207.5894	-0.001545
208.2036	0.002230
208.8180	0.000395
209.4325	0.001197
210.0471	-0.000364
210.6618	0.000733
211.2767	-0.001060
211.8918	0.001386
212.5069	0.001344
213.1222	0.001344
213.7376	0.001344
214.3532	-0.000596
214.9689	0.001155
215.5847	0.000648
216.2007	0.001155
216.8168	0.000374
217.4330	-0.000111
218.0494	0.000691
218.6659	0.001555
219.2825	0.000037
219.8992	0.000248
220.5161	-0.000511
221.1332	-0.000174
221.7503	-0.000511
222.3676	-0.000195
222.9850	-0.000174
223.6026	0.001576
224.2203	0.000353
224.8381	0.001260
225.4561	0.000817
226.0742	0.001787
226.6924	0.000416
227.3107	0.000670
227.9292	-0.000680
228.5478	0.000269
229.1666	0.001070
229.7855	0.000121
230.4045	-0.000638
231.0236	0.001829
231.6429	-0.000090
232.2623	0.000670
232.8818	-0.001102
233.5015	0.001133
234.1213	0.000016
234.7413	0.002019
235.3613	-0.000385
235.9815	0.000416
236.6018	0.000079
237.2223	0.001808
237.8429	0.000227
238.4636	0.000901
239.0845	-0.000532
239.7055	0.000923
240.3266	0.000901
240.9478	0.001365
241.5692	0.000016
242.1907	0.000564
242.8124	-0.000912
243.4341	0.001914
244.0560	0.000269
244.6781	0.001281
245.3002	-0.000300
245.9225	-0.000258
246.5449	0.000395
247.1675	0.000965
247.7902	0.000163
248.4130	0.001028
249.0359	-0.000132
249.6590	-0.000174
250.2822	0.001745
250.9056	0.001787
251.5290	-0.000828
252.1526	-0.000891
252.7763	0.000058
253.4002	0.001597
254.0242	0.000522
254.6483	0.001808
255.2725	0.000775
255.8969	0.001386
256.5214	0.000817
257.1460	0.000459
257.7708	0.000438
258.3957	-0.000111
259.0207	0.000817
259.6459	0.000838
260.2711	-0.000111
260.8965	0.000332
261.5221	0.000311
262.1477	0.001513
262.7735	0.000037
263.3995	-0.000090
264.0255	0.001028
264.6517	0.000817
265.2780	0.000185
265.9044	0.001513
266.5310	0.003200
267.1577	0.001914
267.7845	0.000142
268.4114	0.000944
269.0385	0.000121
269.6657	0.001386
270.2931	0.000859
270.9205	0.001176
271.5481	-0.000448
272.1758	0.000796
272.8037	0.000374
273.4316	0.002715
274.0597	-0.000174
274.6880	0.001133
275.3163	0.000754
275.9448	0.001555
276.5734	0.000248
277.2022	0.000733
277.8310	0.000923
278.4600	0.000416
279.0891	0.000480
279.7184	0.000564
280.3477	0.000838
280.9772	0.000142
281.6069	0.000016
282.2366	0.001492
282.8665	0.000838
283.4965	0.001429
284.1266	0.001070
284.7569	0.001302
285.3873	0.001091
286.0178	0.001471
286.6484	-0.000153
287.2792	0.000817
287.9101	-0.000469
288.5411	-0.000153
289.1723	0.000438
289.8035	0.002082
290.4349	0.001703
291.0665	0.001155
291.6981	-0.000047
292.3299	0.000374
292.9618	-0.000385
293.5938	0.001007
294.2260	-0.000216
294.8582	0.001155
295.4906	0.000248
296.1232	0.001661
296.7558	-0.001081
297.3886	-0.000111
298.0215	0.001640
298.6545	0.001070
299.2877	0.000459
299.9210	0.000627
300.5544	-0.000258
301.1879	0.000880
301.8215	0.000227
302.4553	0.001049
303.0892	0.000880
303.7233	0.002209
304.3574	0.000416
304.9917	0.000459
305.6261	0.000796
306.2606	0.000648
306.8953	-0.000005
307.5301	0.000775
308.1650	0.000374
308.8000	0.001998
309.4351	0.000564
310.0704	0.001049
310.7058	0.000564
311.3413	0.001661
311.9770	0.001239
312.6127	0.000944
313.2486	0.001176
313.8846	0.000480
314.5208	-0.000026
315.1570	0.000691
315.7934	0.000311
316.4299	-0.000258
317.0666	0.000100
317.7033	0.000733
318.3402	0.001176
318.9772	0.000817
319.6143	-0.000743
320.2516	0.002188
320.8890	-0.000385
321.5265	0.000733
322.1641	-0.000026
322.8018	0.001007
323.4397	-0.000300
324.0777	0.000901
324.7158	0.001112
325.3540	0.000163
325.9924	-0.000300
326.6308	0.000648
327.2694	-0.000005
327.9082	0.000480
328.5470	0.000501
329.1860	0.000121
329.8251	0.000290
330.4643	0.001724
331.1036	0.001155
331.7431	0.001492
332.3826	0.000100
333.0223	0.000691
333.6622	0.000501
334.3021	0.000185
334.9422	0.001218
335.5823	0.001555
336.2227	0.001386
336.8631	0.000796
337.5036	0.000585
338.1443	0.001429
338.7851	0.000290
339.4260	0.002335
340.0670	0.000796
340.7082	0.000438
341.3495	0.000965
341.9909	0.000121
342.6324	-0.000532
343.2740	0.000100
343.9158	0.000648
344.5577	0.000100
345.1997	0.000206
345.8418	0.001049
346.4840	-0.000090
347.1264	0.000416
347.7689	0.000332
348.4115	0.000796
349.0542	0.000227
349.6971	0.000079
350.3400	0.000142
350.9831	0.000480
351.6263	0.000606
352.2696	0.000522
352.9131	0.001534
353.5566	-0.000532
354.2003	0.000016
354.8441	0.001408
355.4881	0.000670
356.1321	0.001049
356.7763	0.001112
357.4206	0.001155
358.0650	-0.000153
358.7095	0.000880
359.3541	-0.000659
359.9989	0.001935
360.6438	0.001176
361.2888	0.001450
361.9339	0.000185
362.5791	0.000754
363.2245	0.001239
363.8699	0.000290
364.5155	0.000374
365.1612	0.000269
365.8071	0.001492
366.4530	0.001808
367.0991	-0.000174
367.7453	0.000670
368.3916	0.001766
369.0380	-0.000090
369.6845	0.001133
370.3312	0.000058
370.9780	-0.000195
371.6249	0.000163
372.2719	0.000712
372.9190	0.000332
373.5663	-0.000975
374.2136	0.000923
374.8611	0.000901
375.5087	0.001218
376.1564	0.000648
376.8043	0.000501
377.4522	0.000775
378.1003	0.002103
378.7485	0.000227
379.3968	0.000100
380.0452	0.000543
380.6938	-0.000069
381.3424	0.000986
381.9912	-0.000680
382.6401	0.000142
383.2891	0.000522
383.9382	0.001070
384.5875	0.000438
385.2368	0.000923
385.8863	0.001450
386.5359	0.001344
387.1856	0.000859
387.8355	0.002567
388.4854	0.003137
389.1355	0.001808
389.7856	0.003601
390.4359	0.002314
391.0863	0.003833
391.7369	0.003516
392.3875	0.005456
393.0383	0.005203
393.6891	0.005857
394.3401	0.007523
394.9912	0.007164
395.6425	0.007734
396.2938	0.008809
396.9453	0.010686
397.5968	0.011593
398.2485	0.012837
398.9003	0.014207
399.5522	0.013448
400.2043	0.014587
400.8564	0.013322
401.5087	0.014650
402.1610	0.012921
402.8135	0.016717
403.4661	0.014734
404.1189	0.018172
404.7717	0.019437
405.4246	0.019184
406.0777	0.020175
406.7309	0.018045
407.3842	0.019184
408.0376	0.017370
408.6911	0.020386
409.3448	0.019922
409.9985	0.023043
410.6524	0.021208
411.3064	0.021546
411.9605	0.020196
412.6147	0.023443
413.2690	0.022473
413.9234	0.022157
414.5780	0.022494
415.2326	0.022916
415.8874	0.020027
416.5423	0.021609
417.1973	0.025341
417.8524	0.023486
418.5077	0.021925
419.1630	0.023591
419.8185	0.023739
420.4741	0.024498
421.1298	0.026628
421.7856	0.028061
422.4415	0.027724
423.0975	0.027787
423.7536	0.026480
424.4099	0.025995
425.0663	0.026543
425.7228	0.024118
426.3793	0.022115
427.0361	0.024666
427.6929	0.025320
428.3498	0.025763
429.0068	0.025278
429.6640	0.029221
430.3213	0.031161
430.9787	0.028884
431.6362	0.025868
432.2938	0.022199
432.9515	0.021841
433.6093	0.027872
434.2673	0.027049
434.9253	0.023696
435.5835	0.023654
436.2418	0.023422
436.9001	0.023781
437.5586	0.024856
438.2173	0.024287
438.8760	0.023317
439.5348	0.026902
440.1938	0.025889
440.8528	0.022410
441.5120	0.028504
442.1713	0.027576
442.8307	0.027745
443.4902	0.025974
444.1498	0.027829
444.8095	0.025742
445.4694	0.024688
446.1293	0.024582
446.7894	0.026817
447.4496	0.024962
448.1098	0.023211
448.7702	0.023760
449.4307	0.022769
450.0914	0.021799
450.7521	0.022621
451.4129	0.019816
452.0739	0.020618
452.7349	0.019606
453.3961	0.018383
454.0574	0.019057
454.7188	0.018193
455.3803	0.018804
456.0419	0.017792
456.7036	0.014481
457.3654	0.017012
458.0274	0.018868
458.6894	0.016063
459.3516	0.016168
460.0138	0.016843
460.6762	0.014966
461.3387	0.016358
462.0013	0.013722
462.6640	0.012605
463.3268	0.013743
463.9897	0.013069
464.6528	0.014629
465.3159	0.013849
465.9792	0.015599
466.6425	0.013701
467.3060	0.011339
467.9696	0.010939
468.6333	0.011593
469.2970	0.008451
469.9610	0.009104
470.6250	0.009315
471.2891	0.009589
471.9533	0.007776
472.6177	0.009737
473.2821	0.009336
473.9467	0.009189
474.6113	0.007902
475.2761	0.007734
475.9410	0.008176
476.6060	0.007038
477.2711	0.008640
477.9363	0.006426
478.6016	0.007059
479.2670	0.007164
479.9325	0.007038
480.5982	0.004507
481.2639	0.005625
481.9298	0.006490
482.5957	0.005562
483.2618	0.006321
483.9280	0.006279
484.5943	0.007143
485.2606	0.005330
485.9271	0.018509
486.5937	0.014334
487.2605	0.007839
487.9273	0.004507
488.5942	0.006384
489.2612	0.004233
489.9284	0.004992
490.5956	0.004507
491.2630	0.004528
491.9304	0.003453
492.5980	0.005625
493.2657	0.003095
493.9334	0.003875
494.6013	0.003558
495.2693	0.001618
495.9374	0.003601
496.6056	0.002736
497.2739	0.002314
497.9423	0.003284
498.6109	0.003411
499.2795	0.004128
499.9482	0.003664
500.6171	0.004296
501.2860	0.003664
501.9551	0.003116
502.6242	0.004423
503.2935	0.003706
503.9628	0.002841
504.6323	0.003031
505.3019	0.002420
505.9716	0.003580
506.6414	0.003263
507.3113	0.001745
507.9813	0.002209
508.6514	0.001998
509.3216	0.002209
509.9919	0.003284
510.6623	0.003516
511.3329	0.003685
512.0035	0.003537
512.6742	0.003664
513.3451	0.003010
514.0160	0.003769
514.6871	0.003305
515.3582	0.002694
516.0295	0.003601
516.7008	0.002441
517.3723	0.003200
518.0439	0.002926
518.7155	0.002525
519.3873	0.002103
520.0592	0.003790
520.7312	0.001935
521.4033	0.003242
522.0755	0.004655
522.7478	0.004845
523.4202	0.002947
524.0927	0.004233
524.7653	0.003980
525.4380	0.003811
526.1108	0.003116
526.7837	0.003896
527.4568	0.002820
528.1299	0.004887
528.8031	0.003516
529.4765	0.004339
530.1499	0.003917
530.8234	0.003622
531.4971	0.004676
532.1708	0.005351
532.8447	0.003095
533.5186	0.005878
534.1927	0.005815
534.8668	0.005983
535.5411	0.007902
536.2155	0.008050
536.8899	0.005667
537.5645	0.006806
538.2392	0.008366
538.9139	0.008345
539.5888	0.008451
540.2638	0.009273
540.9389	0.009779
541.6140	0.011002
542.2893	0.011782
542.9647	0.011888
543.6402	0.012373
544.3158	0.012710
544.9915	0.012099
545.6673	0.011698
546.3432	0.014123
547.0192	0.012752
547.6953	0.014397
548.3715	0.017307
549.0478	0.016759
549.7242	0.014882
550.4007	0.016885
551.0773	0.017370
551.7540	0.017202
552.4308	0.020871
553.1077	0.021524
553.7847	0.020850
554.4618	0.020344
555.1390	0.019205
555.8163	0.021799
556.4937	0.021187
557.1712	0.022305
557.8488	0.023401
558.5266	0.024013
559.2044	0.021799
559.8823	0.022642
560.5603	0.028441
561.2384	0.032005
561.9166	0.029959
562.5949	0.028631
563.2733	0.031203
563.9519	0.031267
564.6305	0.032933
565.3092	0.033291
565.9880	0.033439
566.6669	0.035885
567.3459	0.042569
568.0250	0.046555
568.7043	0.056086
569.3836	0.066819
570.0630	0.087358
570.7425	0.087611
571.4221	0.104881
572.1018	0.119052
572.7816	0.103637
573.4615	0.115214
574.1415	0.135035
574.8216	0.148109
575.5018	0.146211
576.1821	0.131345
576.8626	0.154414
577.5431	0.162512
578.2237	0.206520
578.9044	0.171263
579.5851	0.170061
580.2660	0.178116
580.9470	0.171157
581.6281	0.275516
582.3093	0.262190
582.9906	0.202746
583.6720	0.160192
584.3535	0.163988
585.0351	0.189039
585.7167	0.200995
586.3985	0.170588
587.0804	0.177547
587.7624	0.187036
588.4445	0.167404
589.1266	0.145347
589.8089	0.134065
590.4913	0.124745
591.1737	0.108592
591.8563	0.111608
592.5389	0.126474
593.2217	0.172802
593.9046	0.166075
594.5875	0.144714
595.2705	0.163714
595.9537	0.147709
596.6369	0.118313
597.3203	0.125293
598.0037	0.121392
598.6872	0.127571
599.3709	0.154056
600.0546	0.152200
600.7384	0.153845
601.4223	0.154857
602.1064	0.140075
602.7905	0.141340
603.4747	0.158336
604.1590	0.147350
604.8434	0.133897
605.5279	0.136385
606.2125	0.145537
606.8972	0.132210
607.5819	0.134635
608.2668	0.125947
608.9518	0.119326
609.6369	0.112135
610.3220	0.124808
611.0073	0.119241
611.6927	0.116795
612.3781	0.108023
613.0637	0.109225
613.7493	0.107369
614.4351	0.106041
615.1209	0.104270
615.8068	0.107875
616.4929	0.096362
617.1790	0.090331
617.8652	0.091828
618.5515	0.088771
619.2379	0.073567
619.9244	0.077447
620.6110	0.077995
621.2977	0.062328
621.9845	0.068654
622.6714	0.069645
623.3584	0.075465
624.0454	0.073187
624.7326	0.073757
625.4199	0.069033
626.1072	0.063509
626.7947	0.058659
627.4822	0.061737
628.1698	0.053260
628.8576	0.048558
629.5454	0.054083
630.2333	0.050350
630.9213	0.048305
631.6094	0.043265
632.2976	0.044762
632.9859	0.038710
633.6743	0.038289
634.3628	0.036960
635.0514	0.034809
635.7400	0.037023
636.4288	0.040060
637.1177	0.038689
637.8066	0.035210
638.4957	0.036728
639.1848	0.033164
639.8740	0.031191
640.5633	0.031305
641.2528	0.030049
641.9423	0.026528
642.6319	0.026935
643.3216	0.024627
644.0113	0.024708
644.7012	0.021666
645.3912	0.021472
646.0812	0.021679
646.7714	0.021528
647.4616	0.020170
648.1520	0.025702
648.8424	0.027774
649.5329	0.028000
650.2236	0.025281
650.9143	0.023895
651.6051	0.023017
652.2960	0.026265
652.9870	0.025775
653.6780	0.028011
654.3692	0.029929
655.0605	0.046388
655.7518	0.802190
656.4433	1.000000
657.1348	0.723690
657.8264	0.447126
658.5181	0.330264
659.2099	0.236606
659.9018	0.061666
660.5938	0.023267
661.2859	0.020536
661.9781	0.017316
662.6704	0.020165
663.3627	0.020326
664.0552	0.018907
664.7477	0.019245
665.4403	0.021827
666.1330	0.020258
666.8259	0.018251
667.5188	0.018133
668.2117	0.017461
668.9048	0.018361
669.5980	0.017370
670.2913	0.019142
670.9846	0.018551
671.6781	0.023928
672.3716	0.029074
673.0652	0.029284
673.7589	0.024308
674.4527	0.021693
675.1466	0.022052
675.8406	0.021398
676.5347	0.019859
677.2288	0.018804
677.9231	0.023654
678.6174	0.024076
679.3119	0.026438
680.0064	0.031182
680.7010	0.027851
681.3957	0.029095
682.0905	0.027977
682.7854	0.025362
683.4803	0.025531
684.1754	0.028125
684.8705	0.031056
685.5658	0.037129
686.2611	0.036391
686.9565	0.036897
687.6520	0.038584
688.3476	0.034683
689.0433	0.031203
689.7390	0.030191
690.4349	0.028399
691.1308	0.030929
691.8269	0.031878
692.5230	0.032026
693.2192	0.031836
693.9155	0.030782
694.6119	0.026754
695.3083	0.030170
696.0049	0.025932
696.7016	0.029495
697.3983	0.034303
698.0951	0.031203
698.7920	0.031351
699.4890	0.029137
700.1861	0.028167
700.8833	0.025299
701.5806	0.025151
702.2779	0.023486
702.9753	0.028905
703.6729	0.021546
704.3705	0.024709
705.0682	0.021588
705.7660	0.019901
706.4638	0.025299
707.1618	0.032511
707.8599	0.031583
708.5580	0.032827
709.2562	0.027829
709.9545	0.029538
710.6529	0.030212
711.3514	0.027028
712.0500	0.025636
712.7486	0.025299
713.4474	0.026058
714.1462	0.031161
714.8451	0.027113
715.5441	0.028673
716.2432	0.024730
716.9424	0.024898
717.6416	0.023844
718.3410	0.025109
719.0404	0.024877
719.7399	0.025404
720.4395	0.023211
721.1392	0.026396
721.8390	0.025615
722.5388	0.024118
723.2388	0.023085
723.9388	0.024308
724.6389	0.020639
725.3391	0.027155
726.0394	0.026923
726.7398	0.029664
727.4403	0.027070
728.1408	0.029938
728.8414	0.027872
729.5421	0.027872
730.2429	0.033122
730.9438	0.035273
731.6448	0.037508
732.3458	0.033418
733.0470	0.034978
733.7482	0.035758
734.4495	0.041894
735.1509	0.039617
735.8524	0.039132
736.5539	0.038521
737.2556	0.040777
737.9573	0.036981
738.6591	0.035758
739.3610	0.041452
740.0630	0.037319
740.7651	0.032785
741.4672	0.028040
742.1695	0.029833
742.8718	0.028821
743.5742	0.025025
744.2767	0.024877
744.9792	0.024139
745.6819	0.023507
746.3846	0.023127
747.0874	0.024666
747.7903	0.027450
748.4933	0.023064
749.1964	0.025236
749.8995	0.031267
750.6028	0.032848
751.3061	0.032679
752.0095	0.033713
752.7130	0.032279
753.4166	0.032553
754.1202	0.034662
754.8239	0.034177
755.5278	0.035041
756.2317	0.037424
756.9356	0.043581
757.6397	0.048115
758.3438	0.047461
759.0481	0.045774
759.7524	0.051131
760.4568	0.053935
761.1613	0.053366
761.8658	0.043455
762.5705	0.039048
763.2752	0.042379
763.9800	0.041156
764.6849	0.048684
765.3898	0.049907
766.0949	0.042337
766.8000	0.035379
767.5052	0.031372
768.2105	0.036349
768.9159	0.039448
769.6214	0.037234
770.3269	0.036306
771.0325	0.040650
771.7382	0.037635
772.4440	0.034936
773.1499	0.036011
773.8558	0.032996
774.5618	0.027872
775.2679	0.025194
775.9741	0.023211
776.6804	0.023127
777.3868	0.021398
778.0932	0.021356
778.7997	0.023570
779.5063	0.027197
780.2130	0.021377
780.9197	0.026269
781.6265	0.029559
782.3335	0.029938
783.0405	0.027808
783.7475	0.030402
784.4547	0.026522
785.1619	0.023739
785.8692	0.023106
786.5766	0.025341
787.2841	0.025130
787.9917	0.025911
788.6993	0.024645
789.4070	0.025257
790.1148	0.022031
790.8227	0.019437
791.5306	0.020744
792.2387	0.019816
792.9468	0.017476
793.6550	0.019859
794.3632	0.024709
795.0716	0.025468
795.7800	0.026965
796.4885	0.020829
797.1971	0.017497
797.9058	0.020280
798.6145	0.019289
799.3233	0.017982
800.0322	0.016295
800.7412	0.017181
801.4503	0.017876
802.1594	0.015578
802.8686	0.014734
803.5779	0.015810
804.2873	0.015177
804.9968	0.016063
805.7063	0.014207
806.4159	0.020449
807.1256	0.019859
807.8354	0.019353
808.5452	0.018783
809.2551	0.018741
809.9651	0.018825
810.6752	0.015177
811.3853	0.014503
812.0956	0.013575
812.8059	0.010580
813.5163	0.012773
814.2267	0.017518
814.9373	0.014945
815.6479	0.013575
816.3586	0.010897
817.0694	0.012436
817.7802	0.012457
818.4912	0.013807
819.2022	0.009948
819.9133	0.010201
820.6244	0.011065
821.3357	0.013807
822.0470	0.011382
822.7584	0.011361
823.4698	0.009758
824.1814	0.008809
824.8930	0.009653
825.6047	0.011867
826.3165	0.011571
827.0283	0.010348
827.7402	0.012225
828.4522	0.010116
829.1643	0.012541
829.8765	0.010412
830.5887	0.009484
831.3010	0.007734
832.0134	0.009589
832.7259	0.006637
833.4384	0.007544
834.1510	0.009231
834.8637	0.007396
835.5765	0.009210
836.2893	0.006532
837.0022	0.006279
837.7152	0.006658
838.4283	0.006363
839.1414	0.005520
839.8546	0.006215
840.5679	0.006490
841.2813	0.006026
841.9947	0.006258
842.7082	0.005182
843.4218	0.003326
844.1355	0.004423
844.8492	0.005013
845.5631	0.004381
846.2770	0.005056
846.9909	0.005625
847.7050	0.004950
848.4191	0.004507
849.1333	0.004592
849.8475	0.004275
850.5619	0.003959
851.2763	0.004086
851.9908	0.004760
852.7053	0.007649
853.4200	0.011487
854.1347	0.012267
854.8495	0.012183
855.5643	0.011487
856.2792	0.010812
856.9942	0.010327
857.7093	0.007038
858.4245	0.008577
859.1397	0.008134
859.8550	0.007523
860.5704	0.006616
861.2858	0.005857
862.0013	0.005013
862.7169	0.006047
863.4326	0.004676
864.1483	0.004107
864.8642	0.004908
865.5800	0.004402
866.2960	0.001977
867.0120	0.005393
867.7281	0.004592
868.4443	0.005013
869.1606	0.004908
869.8769	0.004697
870.5933	0.003516
871.3097	0.005035
872.0263	0.004760
872.7429	0.004465
873.4596	0.002968
874.1763	0.005056
874.8932	0.004634
875.6101	0.005730
876.3270	0.005224
877.0441	0.005140
877.7612	0.007375
878.4784	0.005498
879.1957	0.006047
879.9130	0.005857
880.6304	0.008408
881.3479	0.005604
882.0654	0.004845
882.7831	0.006616
883.5007	0.004655
884.2185	0.005498
884.9363	0.005920
885.6542	0.006490
886.3722	0.005878
887.0903	0.003601
887.8084	0.004866
888.5266	0.004212
889.2448	0.003432
889.9632	0.003685
890.6816	0.004254
891.4001	0.003790
892.1186	0.004613
892.8372	0.004676
893.5559	0.004275
894.2747	0.004339
894.9935	0.004739
895.7124	0.004022
896.4314	0.004043
897.1504	0.005140
897.8695	0.005182
898.5887	0.004001
899.3079	0.004592
900.0272	0.005077
900.7466	0.004845
901.4661	0.004107
902.1856	0.006005
902.9052	0.003348
903.6249	0.003221
904.3446	0.004613
905.0644	0.004170
905.7843	0.003938
906.5043	0.004318
907.2243	0.004803
907.9444	0.004655
908.6645	0.002441
909.3847	0.002146
910.1050	0.003664
910.8254	0.001871
911.5458	0.004043
912.2663	0.004908
912.9869	0.003221
913.7075	0.002483
914.4283	0.002399
915.1490	0.003369
915.8699	0.002483
916.5908	0.003200
917.3118	0.003348
918.0328	0.004676
918.7539	0.004908
919.4751	0.003031
920.1964	0.003811
920.9177	0.003158
921.6391	0.002884
922.3606	0.002841
923.0821	0.003179
923.8037	0.002378
924.5254	0.002272
925.2471	0.002820
925.9689	0.001239
926.6908	0.002293
927.4127	0.002230
928.1347	0.003474
928.8568	0.001850
929.5789	0.003580
930.3011	0.002314
931.0234	0.003284
931.7457	0.002146
932.4681	0.001408
933.1906	0.000775
933.9131	0.003031
934.6358	0.001935
935.3584	0.001766
936.0812	0.001914
936.8040	0.001386
937.5269	0.001049
938.2498	0.000311
938.9728	0.001808
939.6959	0.002610
940.4190	0.001661
941.1422	0.001597
941.8655	0.001344
942.5889	0.001281
943.3123	0.000185
944.0357	0.000965
944.7593	0.001661
945.4829	0.001745
946.2066	-0.000132
946.9303	0.000733
947.6541	0.001871
948.3780	0.000733
949.1019	0.001218
949.8259	0.001176
950.5500	0.000564
951.2741	0.000585
951.9983	0.001998
952.7226	0.002947
953.4469	0.002504
954.1713	0.001724
954.8958	0.000374
955.6203	0.000944
956.3449	0.002209
957.0696	-0.000343
957.7943	0.001155
958.5191	0.001197
959.2439	0.001302
959.9688	0.001471
960.6938	0.000142
961.4189	0.000121
962.1440	0.001956
962.8692	0.001070
963.5944	0.003137
964.3197	0.001386
965.0451	0.002483
965.7705	0.000522
966.4960	0.001850
967.2216	0.000796
967.9472	0.002694
968.6729	0.000374
969.3987	0.001492
970.1245	0.001049
970.8504	0.002820
971.5763	0.000986
972.3023	0.001492
973.0284	-0.000132
973.7545	0.001260
974.4807	0.000480
975.2070	0.000058
975.9333	0.001091
976.6597	0.000016
977.3862	0.000290
978.1127	0.001028
978.8393	0.001344
979.5659	0.001007
980.2926	0.000775
981.0194	0.001661
981.7462	0.000480
982.4731	0.002778
983.2001	0.000923
983.9271	0.000817
984.6542	0.000901
985.3814	0.001787
986.1086	0.002420
986.8358	0.002293
987.5632	0.000817
988.2906	0.000880
989.0180	0.000817
989.7456	0.000163
990.4732	-0.000216
991.2008	0.001471
991.9285	0.000501
992.6563	0.000901
993.3841	0.000986
994.1120	0.001133
994.8400	0.000163
995.5680	0.001302
996.2961	0.000480
997.0242	0.001661
997.7524	-0.000807
998.4807	0.001429
999.2090	0.001176
999.9374	-0.000300
1000.67	0.000733
1001.39	0.000564
1002.12	-0.000469
1002.85	0.000459
1003.58	0.002167
1004.31	0.001281
1005.04	0.000880
1005.77	0.000121
1006.5	0.001344
1007.22	0.000480
1007.95	0.001450
1008.68	0.001239
1009.41	0.000648
1010.14	0.000100
1010.87	0.000206
1011.6	0.000606
1012.33	0.001555
1013.06	0.000606
1013.79	0.001661
1014.52	0.000121
1015.25	0.000395
1015.98	0.000670
1016.71	0.000817
1017.44	-0.000195
1018.17	0.001365
1018.9	0.000606
1019.63	0.000923
1020.36	0.000353
1021.09	0.001492
1021.82	0.000712
1022.55	0.000543
1023.03	0.001408