File: Auto_Polymerization/Spectra/MRG-061-F-4_spectra_while_stopped_no_alu_foil/spectrum_2025-06-20_07-58-09.txt
# Wavelength (nm)	Intensity (a.u.)
197.7802	0.000933
198.3922	-0.000142
199.0044	0.001017
199.6168	-0.000079
200.2292	0.001207
200.8418	0.000575
201.4546	0.001017
202.0674	0.000575
202.6805	0.000891
203.2936	0.000427
203.9069	0.000764
204.5203	-0.000184
205.1338	0.001819
205.7475	-0.000206
206.3614	0.001144
206.9753	0.000870
207.5894	0.001123
208.2036	0.000722
208.8180	0.001671
209.4325	0.000237
210.0471	-0.000037
210.6618	0.000575
211.2767	0.001249
211.8918	-0.000880
212.5069	0.000996
213.1222	-0.000585
213.7376	0.000322
214.3532	0.000195
214.9689	0.001017
215.5847	-0.000522
216.2007	-0.000037
216.8168	0.001038
217.4330	0.001819
218.0494	-0.000311
218.6659	0.000195
219.2825	0.000448
219.8992	-0.001049
220.5161	0.000638
221.1332	0.001291
221.7503	0.001249
222.3676	0.001608
222.9850	0.000132
223.6026	0.001987
224.2203	0.000069
224.8381	0.000638
225.4561	0.000575
226.0742	0.001481
226.6924	-0.000184
227.3107	0.001650
227.9292	-0.000395
228.5478	0.001334
229.1666	-0.000691
229.7855	0.000427
230.4045	0.001249
231.0236	0.001144
231.6429	0.000807
232.2623	0.001566
232.8818	-0.000016
233.5015	0.001439
234.1213	-0.000374
234.7413	0.000680
235.3613	0.000153
235.9815	0.000912
236.6018	0.000828
237.2223	0.000490
237.8429	-0.000627
238.4636	0.002451
239.0845	0.000195
239.7055	0.001376
240.3266	-0.000395
240.9478	0.001038
241.5692	0.001186
242.1907	0.000195
242.8124	0.000659
243.4341	0.000870
244.0560	-0.000016
244.6781	0.001587
245.3002	0.000258
245.9225	0.001924
246.5449	-0.000648
247.1675	0.000343
247.7902	0.000005
248.4130	0.001334
249.0359	0.000026
249.6590	0.000701
250.2822	0.000617
250.9056	-0.000564
251.5290	0.001038
252.1526	0.000701
252.7763	0.000090
253.4002	0.000743
254.0242	0.002472
254.6483	0.000448
255.2725	0.000090
255.8969	0.001017
256.5214	0.000954
257.1460	0.001249
257.7708	0.000090
258.3957	0.000617
259.0207	-0.000248
259.6459	0.000090
260.2711	0.001355
260.8965	0.000722
261.5221	0.000153
262.1477	0.000195
262.7735	-0.000922
263.3995	0.000132
264.0255	0.000300
264.6517	-0.001028
265.2780	0.000785
265.9044	0.002156
266.5310	0.000954
267.1577	0.001165
267.7845	-0.000248
268.4114	0.000575
269.0385	0.001355
269.6657	0.001355
270.2931	-0.000037
270.9205	0.002135
271.5481	0.001840
272.1758	0.000153
272.8037	-0.000522
273.4316	0.001882
274.0597	0.000785
274.6880	0.000532
275.3163	0.001102
275.9448	-0.000079
276.5734	0.000743
277.2022	0.000026
277.8310	-0.000058
278.4600	0.000785
279.0891	0.000596
279.7184	0.001249
280.3477	-0.000459
280.9772	0.000511
281.6069	0.000026
282.2366	0.001819
282.8665	0.000132
283.4965	0.001249
284.1266	0.000596
284.7569	0.001376
285.3873	0.001439
286.0178	0.000785
286.6484	0.001207
287.2792	0.001629
287.9101	0.000575
288.5411	-0.001007
289.1723	0.001334
289.8035	0.000785
290.4349	0.000448
291.0665	0.001291
291.6981	-0.000037
292.3299	0.000764
292.9618	0.001270
293.5938	0.000258
294.2260	0.000153
294.8582	0.002367
295.4906	-0.000058
296.1232	0.002051
296.7558	-0.000058
297.3886	0.001650
298.0215	0.000153
298.6545	-0.000100
299.2877	0.000722
299.9210	0.000807
300.5544	-0.001049
301.1879	0.001629
301.8215	0.001481
302.4553	0.000322
303.0892	0.000511
303.7233	0.000532
304.3574	0.000680
304.9917	0.001798
305.6261	-0.000142
306.2606	-0.000079
306.8953	-0.000227
307.5301	-0.000501
308.1650	0.000638
308.8000	0.000300
309.4351	-0.000016
310.0704	0.000617
310.7058	0.001270
311.3413	0.000364
311.9770	0.001355
312.6127	0.001060
313.2486	0.000195
313.8846	0.000785
314.5208	0.000005
315.1570	0.001671
315.7934	0.001228
316.4299	0.000490
317.0666	0.000912
317.7033	0.001123
318.3402	0.001313
318.9772	0.000132
319.6143	0.000891
320.2516	-0.000121
320.8890	0.000785
321.5265	0.001291
322.1641	0.000511
322.8018	-0.000796
323.4397	0.001650
324.0777	0.001734
324.7158	0.000322
325.3540	0.001291
325.9924	0.000764
326.6308	0.000469
327.2694	0.000322
327.9082	0.001207
328.5470	0.000385
329.1860	0.000469
329.8251	0.001060
330.4643	0.001903
331.1036	0.001439
331.7431	0.000111
332.3826	0.001439
333.0223	0.000996
333.6622	0.000279
334.3021	0.000975
334.9422	0.001060
335.5823	0.000659
336.2227	0.000195
336.8631	0.000532
337.5036	0.001629
338.1443	0.000237
338.7851	0.001144
339.4260	-0.000374
340.0670	-0.000142
340.7082	0.000427
341.3495	0.002430
341.9909	0.001755
342.6324	0.000743
343.2740	0.000132
343.9158	0.001186
344.5577	0.000300
345.1997	-0.000585
345.8418	0.002620
346.4840	0.000912
347.1264	0.001228
347.7689	-0.000100
348.4115	0.000891
349.0542	0.000132
349.6971	0.000659
350.3400	0.001566
350.9831	0.000638
351.6263	0.000364
352.2696	0.000174
352.9131	0.001270
353.5566	-0.000606
354.2003	0.000069
354.8441	0.000680
355.4881	0.001566
356.1321	-0.000522
356.7763	-0.001218
357.4206	0.001165
358.0650	-0.000691
358.7095	0.001713
359.3541	0.000638
359.9989	-0.000058
360.6438	0.000279
361.2888	0.001102
361.9339	0.000680
362.5791	0.000553
363.2245	0.001060
363.8699	0.000511
364.5155	0.001123
365.1612	0.000617
365.8071	0.001397
366.4530	0.002261
367.0991	-0.000079
367.7453	0.001038
368.3916	0.001291
369.0380	0.002514
369.6845	0.002451
370.3312	-0.000353
370.9780	0.001460
371.6249	0.000553
372.2719	-0.000480
372.9190	0.000490
373.5663	-0.000395
374.2136	0.000975
374.8611	-0.000037
375.5087	0.001566
376.1564	0.001270
376.8043	0.000764
377.4522	0.001017
378.1003	0.001123
378.7485	-0.000058
379.3968	-0.000142
380.0452	0.000701
380.6938	0.001397
381.3424	-0.000459
381.9912	-0.000796
382.6401	-0.000037
383.2891	0.001102
383.9382	0.001566
384.5875	0.000870
385.2368	0.000427
385.8863	0.001123
386.5359	0.000448
387.1856	0.002451
387.8355	0.001017
388.4854	0.003042
389.1355	0.002810
389.7856	0.001903
390.4359	0.003020
391.0863	0.004560
391.7369	0.004939
392.3875	0.004159
393.0383	0.005698
393.6891	0.006732
394.3401	0.007596
394.9912	0.008081
395.6425	0.008292
396.2938	0.009662
396.9453	0.010000
397.5968	0.011033
398.2485	0.012319
398.9003	0.014660
399.5522	0.014090
400.2043	0.014807
400.8564	0.014997
401.5087	0.015208
402.1610	0.015651
402.8135	0.015967
403.4661	0.016325
404.1189	0.019256
404.7717	0.018118
405.4246	0.020289
406.0777	0.019066
406.7309	0.021301
407.3842	0.019045
408.0376	0.018286
408.6911	0.019572
409.3448	0.022018
409.9985	0.020922
410.6524	0.020795
411.3064	0.021070
411.9605	0.022082
412.6147	0.020817
413.2690	0.022503
413.9234	0.023642
414.5780	0.022461
415.2326	0.022271
415.8874	0.025603
416.5423	0.022293
417.1973	0.024064
417.8524	0.021175
418.5077	0.023389
419.1630	0.022820
419.8185	0.025076
420.4741	0.025308
421.1298	0.026004
421.7856	0.030221
422.4415	0.028407
423.0975	0.025244
423.7536	0.026868
424.4099	0.026742
425.0663	0.026004
425.7228	0.024823
426.3793	0.022799
427.0361	0.025076
427.6929	0.027543
428.3498	0.023473
429.0068	0.025097
429.6640	0.025244
430.3213	0.029103
430.9787	0.028555
431.6362	0.026341
432.2938	0.024085
432.9515	0.024190
433.6093	0.024127
434.2673	0.027606
434.9253	0.025582
435.5835	0.025413
436.2418	0.024296
436.9001	0.026109
437.5586	0.023305
438.2173	0.022588
438.8760	0.024127
439.5348	0.024991
440.1938	0.023431
440.8528	0.024654
441.5120	0.026931
442.1713	0.027416
442.8307	0.024506
443.4902	0.026931
444.1498	0.028955
444.8095	0.026615
445.4694	0.024085
446.1293	0.022925
446.7894	0.026805
447.4496	0.024738
448.1098	0.024823
448.7702	0.021681
449.4307	0.021280
450.0914	0.021344
450.7521	0.021976
451.4129	0.019804
452.0739	0.021365
452.7349	0.019404
453.3961	0.019193
454.0574	0.019362
454.7188	0.017907
455.3803	0.018856
456.0419	0.016852
456.7036	0.016979
457.3654	0.016473
458.0274	0.017422
458.6894	0.017274
459.3516	0.017401
460.0138	0.017401
460.6762	0.016789
461.3387	0.016557
462.0013	0.014786
462.6640	0.013795
463.3268	0.012193
463.9897	0.016178
464.6528	0.016410
465.3159	0.015798
465.9792	0.016726
466.6425	0.012888
467.3060	0.012382
467.9696	0.012129
468.6333	0.010653
469.2970	0.012256
469.9610	0.009156
470.6250	0.009156
471.2891	0.009641
471.9533	0.008819
472.6177	0.007828
473.2821	0.009452
473.9467	0.008587
474.6113	0.007491
475.2761	0.006985
475.9410	0.009915
476.6060	0.005994
477.2711	0.007385
477.9363	0.007828
478.6016	0.006457
479.2670	0.007238
479.9325	0.006605
480.5982	0.006985
481.2639	0.006626
481.9298	0.007554
482.5957	0.006394
483.2618	0.005656
483.9280	0.006225
484.5943	0.005171
485.2606	0.006816
485.9271	0.012235
486.5937	0.014702
487.2605	0.010569
487.9273	0.004265
488.5942	0.005150
489.2612	0.005804
489.9284	0.003969
490.5956	0.004560
491.2630	0.003400
491.9304	0.004876
492.5980	0.004201
493.2657	0.004686
493.9334	0.003695
494.6013	0.004960
495.2693	0.003316
495.9374	0.003274
496.6056	0.003231
497.2739	0.004307
497.9423	0.002683
498.6109	0.003126
499.2795	0.003906
499.9482	0.003590
500.6171	0.003231
501.2860	0.003210
501.9551	0.004075
502.6242	0.003379
503.2935	0.002746
503.9628	0.003400
504.6323	0.001987
505.3019	0.002789
505.9716	0.002029
506.6414	0.003780
507.3113	0.002008
507.9813	0.003231
508.6514	0.003843
509.3216	0.001355
509.9919	0.003020
510.6623	0.002936
511.3329	0.003358
512.0035	0.005298
512.6742	0.002999
513.3451	0.003316
514.0160	0.001882
514.6871	0.003295
515.3582	0.002599
516.0295	0.002557
516.7008	0.002810
517.3723	0.002557
518.0439	0.001882
518.7155	0.001587
519.3873	0.001460
520.0592	0.002557
520.7312	0.003885
521.4033	0.003758
522.0755	0.002493
522.7478	0.004159
523.4202	0.003295
524.0927	0.003548
524.7653	0.004433
525.4380	0.002282
526.1108	0.003843
526.7837	0.003147
527.4568	0.004518
528.1299	0.003421
528.8031	0.003864
529.4765	0.004328
530.1499	0.005593
530.8234	0.005804
531.4971	0.004728
532.1708	0.003590
532.8447	0.005888
533.5186	0.005171
534.1927	0.007048
534.8668	0.007153
535.5411	0.007870
536.2155	0.007575
536.8899	0.007638
537.5645	0.006732
538.2392	0.008292
538.9139	0.007976
539.5888	0.008861
540.2638	0.008777
540.9389	0.010337
541.6140	0.009515
542.2893	0.009367
542.9647	0.010927
543.6402	0.011581
544.3158	0.011455
544.9915	0.013901
545.6673	0.013584
546.3432	0.012509
547.0192	0.011813
547.6953	0.015229
548.3715	0.016874
549.0478	0.015313
549.7242	0.015946
550.4007	0.016705
551.0773	0.016114
551.7540	0.014069
552.4308	0.021576
553.1077	0.020353
553.7847	0.019868
554.4618	0.020289
555.1390	0.017633
555.8163	0.024485
556.4937	0.022314
557.1712	0.023768
557.8488	0.022039
558.5266	0.025013
559.2044	0.021786
559.8823	0.022461
560.5603	0.026257
561.2384	0.030031
561.9166	0.031380
562.5949	0.030010
563.2733	0.028323
563.9519	0.030727
564.6305	0.032709
565.3092	0.032941
565.9880	0.035365
566.6669	0.036188
567.3459	0.040384
568.0250	0.047743
568.7043	0.050125
569.3836	0.062397
570.0630	0.078907
570.7425	0.087067
571.4221	0.102965
572.1018	0.111378
572.7816	0.108468
573.4615	0.105010
574.1415	0.131030
574.8216	0.143829
575.5018	0.150133
576.1821	0.132949
576.8626	0.139801
577.5431	0.157112
578.2237	0.207064
578.9044	0.176975
579.5851	0.162342
580.2660	0.173200
580.9470	0.169574
581.6281	0.240695
582.3093	0.262286
582.9906	0.218386
583.6720	0.172273
584.3535	0.160191
585.0351	0.169574
585.7167	0.198018
586.3985	0.181255
587.0804	0.166284
587.7624	0.186632
588.4445	0.170143
589.1266	0.151946
589.8089	0.137039
590.4913	0.127319
591.1737	0.113761
591.8563	0.109249
592.5389	0.108595
593.2217	0.164534
593.9046	0.165272
594.5875	0.143744
595.2705	0.159137
595.9537	0.148046
596.6369	0.122743
597.3203	0.120361
598.0037	0.120972
598.6872	0.114140
599.3709	0.152284
600.0546	0.144988
600.7384	0.151335
601.4223	0.155194
602.1064	0.138663
602.7905	0.136322
603.4747	0.148383
604.1590	0.152874
604.8434	0.132590
605.5279	0.130819
606.2125	0.142943
606.8972	0.129975
607.5819	0.132168
608.2668	0.127551
608.9518	0.119011
609.6369	0.110682
610.3220	0.124915
611.0073	0.118357
611.6927	0.112390
612.3781	0.109734
613.0637	0.104863
613.7493	0.099929
614.4351	0.104884
615.1209	0.099655
615.8068	0.102501
616.4929	0.098284
617.1790	0.089154
617.8652	0.090883
618.5515	0.088501
619.2379	0.075596
619.9244	0.072054
620.6110	0.083145
621.2977	0.065918
621.9845	0.060267
622.6714	0.070894
623.3584	0.073319
624.0454	0.073403
624.7326	0.074605
625.4199	0.070051
626.1072	0.066719
626.7947	0.061975
627.4822	0.057400
628.1698	0.055165
628.8576	0.049661
629.5454	0.051559
630.2333	0.049703
630.9213	0.048038
631.6094	0.044137
632.2976	0.044770
632.9859	0.040046
633.6743	0.035640
634.3628	0.038275
635.0514	0.035133
635.7400	0.034522
636.4288	0.037917
637.1177	0.039161
637.8066	0.035070
638.4957	0.035176
639.1848	0.034902
639.8740	0.032559
640.5633	0.034034
641.2528	0.029867
641.9423	0.026515
642.6319	0.024460
643.3216	0.025261
644.0113	0.026973
644.7012	0.025109
645.3912	0.023092
646.0812	0.022512
646.7714	0.020916
647.4616	0.021488
648.1520	0.023035
648.8424	0.027652
649.5329	0.029398
650.2236	0.027223
650.9143	0.025326
651.6051	0.025290
652.2960	0.025091
652.9870	0.025911
653.6780	0.026670
654.3692	0.027272
655.0605	0.033844
655.7518	0.390543
656.4433	1.000000
657.1348	0.890931
657.8264	0.495437
658.5181	0.358281
659.2099	0.291503
659.9018	0.098939
660.5938	0.027698
661.2859	0.019784
661.9781	0.021111
662.6704	0.020811
663.3627	0.016964
664.0552	0.018600
664.7477	0.018206
665.4403	0.020315
666.1330	0.019806
666.8259	0.017966
667.5188	0.017110
668.2117	0.018850
668.9048	0.018139
669.5980	0.018097
670.2913	0.019214
670.9846	0.018413
671.6781	0.019720
672.3716	0.027838
673.0652	0.028934
673.7589	0.026931
674.4527	0.024991
675.1466	0.023431
675.8406	0.022651
676.5347	0.020353
677.2288	0.020332
677.9231	0.022082
678.6174	0.026362
679.3119	0.026657
680.0064	0.028386
680.7010	0.030663
681.3957	0.027880
682.0905	0.028681
682.7854	0.027480
683.4803	0.026615
684.1754	0.027437
684.8705	0.033194
685.5658	0.035977
686.2611	0.037010
686.9565	0.035365
687.6520	0.037600
688.3476	0.033088
689.0433	0.031718
689.7390	0.033299
690.4349	0.029230
691.1308	0.029124
691.8269	0.032540
692.5230	0.032076
693.2192	0.030895
693.9155	0.032561
694.6119	0.029230
695.3083	0.031317
696.0049	0.027100
696.7016	0.024317
697.3983	0.031823
698.0951	0.031697
698.7920	0.033173
699.4890	0.029946
700.1861	0.028154
700.8833	0.026699
701.5806	0.024190
702.2779	0.023642
702.9753	0.025455
703.6729	0.024127
704.3705	0.023473
705.0682	0.022377
705.7660	0.019973
706.4638	0.022756
707.1618	0.029757
707.8599	0.033130
708.5580	0.032435
709.2562	0.029925
709.9545	0.026341
710.6529	0.028344
711.3514	0.027796
712.0500	0.025624
712.7486	0.023389
713.4474	0.025329
714.1462	0.027648
714.8451	0.030326
715.5441	0.028175
716.2432	0.027733
716.9424	0.023621
717.6416	0.022946
718.3410	0.022039
719.0404	0.024253
719.7399	0.024359
720.4395	0.024127
721.1392	0.023916
721.8390	0.024781
722.5388	0.023958
723.2388	0.023199
723.9388	0.022145
724.6389	0.023305
725.3391	0.022904
726.0394	0.026446
726.7398	0.027184
727.4403	0.027648
728.1408	0.026193
728.8414	0.028302
729.5421	0.027606
730.2429	0.030642
730.9438	0.031865
731.6448	0.036040
732.3458	0.032983
733.0470	0.035956
733.7482	0.036799
734.4495	0.041101
735.1509	0.039857
735.8524	0.041396
736.5539	0.040721
737.2556	0.040215
737.9573	0.038022
738.6591	0.032413
739.3610	0.033573
740.0630	0.038275
740.7651	0.032456
741.4672	0.031507
742.1695	0.026784
742.8718	0.028534
743.5742	0.025118
744.2767	0.025497
744.9792	0.025687
745.6819	0.023537
746.3846	0.023368
747.0874	0.023684
747.7903	0.025835
748.4933	0.024528
749.1964	0.024570
749.8995	0.029187
750.6028	0.033447
751.3061	0.031359
752.0095	0.034142
752.7130	0.033151
753.4166	0.030537
754.1202	0.036146
754.8239	0.032097
755.5278	0.034796
756.2317	0.035197
756.9356	0.040363
757.6397	0.047342
758.3438	0.046815
759.0481	0.045044
759.7524	0.050357
760.4568	0.051981
761.1613	0.051158
761.8658	0.046520
762.5705	0.040911
763.2752	0.039772
763.9800	0.041986
764.6849	0.046456
765.3898	0.046245
766.0949	0.043041
766.8000	0.037474
767.5052	0.032667
768.2105	0.032160
768.9159	0.037832
769.6214	0.038908
770.3269	0.036293
771.0325	0.037052
771.7382	0.040152
772.4440	0.035429
773.1499	0.033278
773.8558	0.030410
774.5618	0.030326
775.2679	0.026763
775.9741	0.024232
776.6804	0.020859
777.3868	0.020627
778.0932	0.020943
778.7997	0.022588
779.5063	0.027037
780.2130	0.026193
780.9197	0.021786
781.6265	0.030558
782.3335	0.029504
783.0405	0.027311
783.7475	0.028934
784.4547	0.027142
785.1619	0.024823
785.8692	0.025476
786.5766	0.023937
787.2841	0.022841
787.9917	0.024802
788.6993	0.026004
789.4070	0.026383
790.1148	0.023052
790.8227	0.020859
791.5306	0.019636
792.2387	0.019024
792.9468	0.019594
793.6550	0.015883
794.3632	0.026214
795.0716	0.028597
795.7800	0.026868
796.4885	0.020943
797.1971	0.018835
797.9058	0.019952
798.6145	0.020437
799.3233	0.019804
800.0322	0.017548
800.7412	0.016178
801.4503	0.016009
802.1594	0.014786
802.8686	0.014660
803.5779	0.014385
804.2873	0.015018
804.9968	0.015925
805.7063	0.013331
806.4159	0.017822
807.1256	0.021470
807.8354	0.017759
808.5452	0.019045
809.2551	0.017590
809.9651	0.016621
810.6752	0.016768
811.3853	0.016178
812.0956	0.014006
812.8059	0.013120
813.5163	0.011940
814.2267	0.015883
814.9373	0.016325
815.6479	0.014048
816.3586	0.012193
817.0694	0.012129
817.7802	0.013268
818.4912	0.012108
819.2022	0.013458
819.9133	0.010632
820.6244	0.011138
821.3357	0.013036
822.0470	0.012319
822.7584	0.011897
823.4698	0.009873
824.1814	0.009620
824.8930	0.008903
825.6047	0.010885
826.3165	0.011181
827.0283	0.010548
827.7402	0.011623
828.4522	0.010084
829.1643	0.010421
829.8765	0.010949
830.5887	0.010379
831.3010	0.007280
832.0134	0.008102
832.7259	0.006331
833.4384	0.008482
834.1510	0.007596
834.8637	0.011223
835.5765	0.007533
836.2893	0.009198
837.0022	0.006394
837.7152	0.005635
838.4283	0.005888
839.1414	0.004918
839.8546	0.006183
840.5679	0.006204
841.2813	0.006225
841.9947	0.007701
842.7082	0.005108
843.4218	0.004876
844.1355	0.004876
844.8492	0.004496
845.5631	0.005551
846.2770	0.005614
846.9909	0.004918
847.7050	0.004686
848.4191	0.003843
849.1333	0.005340
849.8475	0.003674
850.5619	0.005213
851.2763	0.003653
851.9908	0.004222
852.7053	0.006605
853.4200	0.009747
854.1347	0.012530
854.8495	0.011729
855.5643	0.011202
856.2792	0.010000
856.9942	0.009810
857.7093	0.009515
858.4245	0.008587
859.1397	0.008229
859.8550	0.007807
860.5704	0.007744
861.2858	0.005719
862.0013	0.007596
862.7169	0.005066
863.4326	0.006457
864.1483	0.005762
864.8642	0.005846
865.5800	0.003801
866.2960	0.005445
867.0120	0.004328
867.7281	0.005509
868.4443	0.003716
869.1606	0.003569
869.8769	0.004054
870.5933	0.005319
871.3097	0.005825
872.0263	0.005445
872.7429	0.006078
873.4596	0.004623
874.1763	0.004855
874.8932	0.003484
875.6101	0.005593
876.3270	0.005509
877.0441	0.004433
877.7612	0.005256
878.4784	0.007406
879.1957	0.005804
879.9130	0.005319
880.6304	0.006141
881.3479	0.007554
882.0654	0.007174
882.7831	0.005719
883.5007	0.005466
884.2185	0.006626
884.9363	0.005277
885.6542	0.005783
886.3722	0.004454
887.0903	0.005888
887.8084	0.006120
888.5266	0.003822
889.2448	0.004454
889.9632	0.003927
890.6816	0.003737
891.4001	0.001861
892.1186	0.005340
892.8372	0.004265
893.5559	0.004876
894.2747	0.004897
894.9935	0.003042
895.7124	0.003969
896.4314	0.005213
897.1504	0.003295
897.8695	0.003274
898.5887	0.004328
899.3079	0.004876
900.0272	0.004033
900.7466	0.003463
901.4661	0.004581
902.1856	0.004433
902.9052	0.003569
903.6249	0.002536
904.3446	0.002810
905.0644	0.004159
905.7843	0.005466
906.5043	0.003484
907.2243	0.003337
907.9444	0.004117
908.6645	0.003105
909.3847	0.003126
910.1050	0.003020
910.8254	0.004412
911.5458	0.003421
912.2663	0.003527
912.9869	0.003147
913.7075	0.003379
914.4283	0.005066
915.1490	0.002915
915.8699	0.002282
916.5908	0.005087
917.3118	0.003274
918.0328	0.004243
918.7539	0.004623
919.4751	0.004771
920.1964	0.002093
920.9177	0.003548
921.6391	0.003822
922.3606	0.003737
923.0821	0.003505
923.8037	0.002114
924.5254	0.003548
925.2471	0.002198
925.9689	0.004644
926.6908	0.001060
927.4127	0.003126
928.1347	0.001713
928.8568	0.002767
929.5789	0.002325
930.3011	0.001334
931.0234	0.003020
931.7457	0.001249
932.4681	0.003337
933.1906	0.003189
933.9131	0.002388
934.6358	0.003358
935.3584	0.002282
936.0812	0.002261
936.8040	0.002936
937.5269	0.001355
938.2498	0.002641
938.9728	0.000469
939.6959	0.002536
940.4190	0.000975
941.1422	0.000490
941.8655	0.001334
942.5889	0.001776
943.3123	0.001945
944.0357	0.001439
944.7593	0.001060
945.4829	0.003758
946.2066	0.001629
946.9303	0.001608
947.6541	0.001270
948.3780	0.000849
949.1019	0.001038
949.8259	0.001734
950.5500	0.001587
951.2741	0.002177
951.9983	0.001608
952.7226	0.002029
953.4469	0.000954
954.1713	0.002514
954.8958	0.001439
955.6203	0.001523
956.3449	0.001439
957.0696	0.000954
957.7943	0.001502
958.5191	0.000933
959.2439	0.000828
959.9688	0.000659
960.6938	0.000532
961.4189	0.000996
962.1440	0.001270
962.8692	0.000153
963.5944	0.000933
964.3197	0.001502
965.0451	0.000659
965.7705	0.001017
966.4960	0.001144
967.2216	0.000701
967.9472	0.000490
968.6729	0.000828
969.3987	0.001650
970.1245	0.001017
970.8504	0.001924
971.5763	0.001798
972.3023	0.000722
973.0284	0.001523
973.7545	0.001945
974.4807	0.000448
975.2070	0.000026
975.9333	0.001102
976.6597	0.000912
977.3862	0.001987
978.1127	0.001291
978.8393	0.001692
979.5659	-0.000163
980.2926	0.002578
981.0194	0.001334
981.7462	0.001587
982.4731	0.001650
983.2001	0.001270
983.9271	0.000807
984.6542	0.002282
985.3814	-0.001534
986.1086	0.001861
986.8358	0.000343
987.5632	0.000975
988.2906	-0.000395
989.0180	0.002282
989.7456	0.001334
990.4732	0.001903
991.2008	0.001228
991.9285	0.000153
992.6563	-0.000206
993.3841	0.001334
994.1120	0.001123
994.8400	0.002051
995.5680	0.001439
996.2961	-0.000986
997.0242	-0.000585
997.7524	0.000322
998.4807	0.001987
999.2090	0.001397
999.9374	0.001903
1000.67	0.001439
1001.39	0.001355
1002.12	0.000111
1002.85	0.000153
1003.58	0.000870
1004.31	0.000701
1005.04	0.000912
1005.77	0.001355
1006.5	0.002240
1007.22	-0.000944
1007.95	0.001713
1008.68	0.001523
1009.41	0.000553
1010.14	-0.000332
1010.87	0.000490
1011.6	0.000490
1012.33	0.000617
1013.06	0.001987
1013.79	0.000975
1014.52	0.002177
1015.25	0.000954
1015.98	0.000617
1016.71	-0.000606
1017.44	0.000322
1018.17	0.001186
1018.9	0.000617
1019.63	0.000174
1020.36	0.001882
1021.09	0.000553
1021.82	0.001123
1022.55	0.000701
1023.03	0.000427