File: Auto_Polymerization/Spectra/MRG-061-F-4_spectra_while_stopped_no_alu_foil/spectrum_2025-06-20_08-13-29.txt
# Wavelength (nm)	Intensity (a.u.)
197.7802	0.000002
198.3922	-0.000336
199.0044	0.000276
199.6168	-0.000526
200.2292	-0.000715
200.8418	0.001499
201.4546	0.001584
202.0674	-0.001243
202.6805	0.002723
203.2936	-0.000462
203.9069	-0.001032
204.5203	0.000656
205.1338	0.001985
205.7475	-0.001348
206.3614	-0.000209
206.9753	-0.000272
207.5894	0.000824
208.2036	-0.000800
208.8180	0.000107
209.4325	-0.000652
210.0471	-0.000230
210.6618	-0.000294
211.2767	0.000656
211.8918	-0.000420
212.5069	0.000846
213.1222	0.000635
213.7376	0.000846
214.3532	0.001499
214.9689	0.001014
215.5847	-0.000104
216.2007	-0.000737
216.8168	0.000529
217.4330	-0.000294
218.0494	0.002090
218.6659	0.001310
219.2825	0.001035
219.8992	0.001056
220.5161	0.000192
221.1332	0.000149
221.7503	-0.000378
222.3676	0.000487
222.9850	-0.000610
223.6026	0.001120
224.2203	0.001183
224.8381	0.000107
225.4561	-0.000800
226.0742	0.000023
226.6924	-0.000779
227.3107	0.000656
227.9292	0.000360
228.5478	0.001289
229.1666	0.000002
229.7855	0.002385
230.4045	-0.000062
231.0236	0.000951
231.6429	-0.001032
232.2623	0.000719
232.8818	-0.000146
233.5015	0.000107
234.1213	0.000381
234.7413	0.000782
235.3613	-0.000673
235.9815	0.000466
236.6018	0.001331
237.2223	0.001225
237.8429	-0.000969
238.4636	-0.000378
239.0845	0.000677
239.7055	0.001605
240.3266	0.000149
240.9478	-0.000863
241.5692	-0.000378
242.1907	0.001985
242.8124	-0.000800
243.4341	0.000909
244.0560	0.000867
244.6781	-0.000884
245.3002	0.000909
245.9225	0.001056
246.5449	0.001183
247.1675	-0.000125
247.7902	0.000867
248.4130	0.000381
249.0359	0.000592
249.6590	0.001289
250.2822	0.000909
250.9056	0.000487
251.5290	0.000023
252.1526	0.000656
252.7763	-0.000125
253.4002	-0.000631
254.0242	-0.001032
254.6483	0.000972
255.2725	0.000487
255.8969	0.001014
256.5214	-0.000062
257.1460	0.002048
257.7708	0.000339
258.3957	0.000951
259.0207	-0.000104
259.6459	0.000360
260.2711	0.000719
260.8965	0.000909
261.5221	0.000445
262.1477	-0.000842
262.7735	0.000592
263.3995	0.001521
264.0255	0.000128
264.6517	-0.000547
265.2780	-0.000336
265.9044	0.000571
266.5310	0.000867
267.1577	0.001310
267.7845	0.000276
268.4114	0.000761
269.0385	0.001014
269.6657	-0.000505
270.2931	0.000065
270.9205	0.001394
271.5481	-0.000715
272.1758	0.000002
272.8037	0.000128
273.4316	0.001225
274.0597	-0.001390
274.6880	0.001289
275.3163	-0.000842
275.9448	0.000656
276.5734	0.000213
277.2022	0.001415
277.8310	-0.000715
278.4600	0.000972
279.0891	0.000065
279.7184	0.001141
280.3477	-0.000863
280.9772	0.000592
281.6069	-0.000336
282.2366	0.001753
282.8665	0.000149
283.4965	0.000909
284.1266	0.000508
284.7569	-0.001095
285.3873	-0.000125
286.0178	0.001774
286.6484	-0.000800
287.2792	0.000867
287.9101	0.001183
288.5411	0.001204
289.1723	-0.001222
289.8035	0.001078
290.4349	0.000149
291.0665	-0.000294
291.6981	0.000487
292.3299	0.001542
292.9618	-0.000652
293.5938	0.000803
294.2260	0.001352
294.8582	0.000888
295.4906	0.000909
296.1232	-0.000526
296.7558	0.000403
297.3886	0.000888
298.0215	0.000128
298.6545	0.000635
299.2877	0.000381
299.9210	0.001267
300.5544	-0.000441
301.1879	0.001120
301.8215	0.000360
302.4553	0.000677
303.0892	0.000867
303.7233	0.000149
304.3574	-0.000715
304.9917	0.000276
305.6261	0.000487
306.2606	0.000824
306.8953	0.000276
307.5301	0.000656
308.1650	0.000803
308.8000	-0.000357
309.4351	0.001373
310.0704	0.000044
310.7058	0.000824
311.3413	0.000761
311.9770	0.000403
312.6127	-0.000420
313.2486	0.000192
313.8846	-0.000230
314.5208	-0.000188
315.1570	0.001710
315.7934	-0.000399
316.4299	0.001795
317.0666	0.000592
317.7033	-0.000800
318.3402	-0.000526
318.9772	0.000318
319.6143	0.000677
320.2516	0.001521
320.8890	0.000128
321.5265	-0.000715
322.1641	0.000782
322.8018	0.000571
323.4397	0.000677
324.0777	0.000613
324.7158	-0.000378
325.3540	0.000656
325.9924	0.000403
326.6308	-0.000230
327.2694	0.001352
327.9082	0.000065
328.5470	-0.001053
329.1860	0.000529
329.8251	0.000824
330.4643	0.000487
331.1036	-0.000188
331.7431	0.001014
332.3826	-0.000673
333.0223	-0.000272
333.6622	-0.000272
334.3021	0.000065
334.9422	0.000529
335.5823	-0.000040
336.2227	-0.000294
336.8631	-0.000146
337.5036	0.000297
338.1443	0.000255
338.7851	-0.000589
339.4260	0.002006
340.0670	-0.000969
340.7082	0.000909
341.3495	-0.000547
341.9909	0.000803
342.6324	0.001563
343.2740	0.001689
343.9158	0.000719
344.5577	-0.000505
345.1997	0.000761
345.8418	0.000297
346.4840	0.000571
347.1264	0.000234
347.7689	0.000149
348.4115	0.001035
349.0542	0.000529
349.6971	0.001563
350.3400	-0.000272
350.9831	0.000550
351.6263	-0.000715
352.2696	0.000656
352.9131	0.000508
353.5566	0.000782
354.2003	0.000972
354.8441	0.001415
355.4881	0.000951
356.1321	0.000192
356.7763	0.000719
357.4206	0.001964
358.0650	-0.000821
358.7095	-0.000378
359.3541	0.000571
359.9989	-0.000969
360.6438	-0.000568
361.2888	0.000044
361.9339	0.000445
362.5791	0.001035
363.2245	-0.000737
363.8699	0.001014
364.5155	0.000276
365.1612	0.000571
365.8071	0.000213
366.4530	0.001204
367.0991	0.000846
367.7453	-0.000251
368.3916	0.001056
369.0380	0.001204
369.6845	0.001858
370.3312	0.000993
370.9780	-0.000441
371.6249	0.000424
372.2719	-0.000167
372.9190	0.000571
373.5663	0.000740
374.2136	-0.000652
374.8611	-0.000779
375.5087	-0.000040
376.1564	0.001289
376.8043	0.002132
377.4522	0.000635
378.1003	-0.000230
378.7485	0.000107
379.3968	0.001753
380.0452	-0.000441
380.6938	0.000192
381.3424	-0.001285
381.9912	0.000909
382.6401	0.000951
383.2891	0.001183
383.9382	0.000635
384.5875	0.000529
385.2368	0.000171
385.8863	0.001647
386.5359	0.001246
387.1856	0.002512
387.8355	0.000698
388.4854	0.000592
389.1355	0.000487
389.7856	0.002639
390.4359	0.001837
391.0863	0.004052
391.7369	0.004010
392.3875	0.004727
393.0383	0.006351
393.6891	0.005697
394.3401	0.006372
394.9912	0.007954
395.6425	0.007532
396.2938	0.006857
396.9453	0.009515
397.5968	0.009916
398.2485	0.011435
398.9003	0.012511
399.5522	0.012279
400.2043	0.014325
400.8564	0.013587
401.5087	0.015042
402.1610	0.015042
402.8135	0.015084
403.4661	0.014831
404.1189	0.015042
404.7717	0.015907
405.4246	0.019472
406.0777	0.018797
406.7309	0.017848
407.3842	0.017151
408.0376	0.020632
408.6911	0.020337
409.3448	0.019219
409.9985	0.021834
410.6524	0.020041
411.3064	0.020927
411.9605	0.019029
412.6147	0.021708
413.2690	0.022889
413.9234	0.021265
414.5780	0.021666
415.2326	0.022805
415.8874	0.021138
416.5423	0.022298
417.1973	0.023016
417.8524	0.021560
418.5077	0.023142
419.1630	0.023332
419.8185	0.023227
420.4741	0.026285
421.1298	0.026306
421.7856	0.026117
422.4415	0.028310
423.0975	0.026159
423.7536	0.025948
424.4099	0.025336
425.0663	0.024534
425.7228	0.023585
426.3793	0.024091
427.0361	0.021729
427.6929	0.024577
428.3498	0.022741
429.0068	0.021370
429.6640	0.026665
430.3213	0.027150
430.9787	0.028142
431.6362	0.024767
432.2938	0.022003
432.9515	0.021012
433.6093	0.023649
434.2673	0.024956
434.9253	0.025083
435.5835	0.024661
436.2418	0.022699
436.9001	0.025273
437.5586	0.023269
438.2173	0.024134
438.8760	0.024999
439.5348	0.023227
440.1938	0.023859
440.8528	0.022552
441.5120	0.029217
442.1713	0.026538
442.8307	0.023585
443.4902	0.025336
444.1498	0.028374
444.8095	0.025252
445.4694	0.024767
446.1293	0.022404
446.7894	0.025041
447.4496	0.023859
448.1098	0.022995
448.7702	0.021602
449.4307	0.022615
450.0914	0.021834
450.7521	0.020168
451.4129	0.019577
452.0739	0.020737
452.7349	0.019345
453.3961	0.018206
454.0574	0.017573
454.7188	0.017573
455.3803	0.017552
456.0419	0.016645
456.7036	0.016730
457.3654	0.015169
458.0274	0.015633
458.6894	0.017405
459.3516	0.016983
460.0138	0.016814
460.6762	0.013987
461.3387	0.015949
462.0013	0.013945
462.6640	0.013418
463.3268	0.015274
463.9897	0.011414
464.6528	0.014262
465.3159	0.013776
465.9792	0.013629
466.6425	0.011540
467.3060	0.011013
467.9696	0.011393
468.6333	0.010739
469.2970	0.009536
469.9610	0.007912
470.6250	0.009051
471.2891	0.008629
471.9533	0.007786
472.6177	0.006689
473.2821	0.009452
473.9467	0.008650
474.6113	0.006330
475.2761	0.007912
475.9410	0.006267
476.6060	0.006752
477.2711	0.006035
477.9363	0.007195
478.6016	0.007807
479.2670	0.006436
479.9325	0.005528
480.5982	0.007743
481.2639	0.005866
481.9298	0.005085
482.5957	0.005761
483.2618	0.006900
483.9280	0.005107
484.5943	0.006182
485.2606	0.005444
485.9271	0.017046
486.5937	0.009705
487.2605	0.009705
487.9273	0.005191
488.5942	0.006140
489.2612	0.006372
489.9284	0.004115
490.5956	0.005191
491.2630	0.005550
491.9304	0.003757
492.5980	0.003398
493.2657	0.002828
493.9334	0.003630
494.6013	0.002407
495.2693	0.001373
495.9374	0.004010
496.6056	0.004347
497.2739	0.003060
497.9423	0.003799
498.6109	0.001521
499.2795	0.003039
499.9482	0.002639
500.6171	0.003482
501.2860	0.004242
501.9551	0.002934
502.6242	0.000951
503.2935	0.003482
503.9628	0.003250
504.6323	0.002259
505.3019	0.001921
505.9716	0.002048
506.6414	0.002153
507.3113	0.002849
507.9813	0.003166
508.6514	0.002301
509.3216	0.001964
509.9919	0.002512
510.6623	0.002449
511.3329	0.002639
512.0035	0.001921
512.6742	0.001584
513.3451	0.002617
514.0160	0.003166
514.6871	0.004094
515.3582	0.001584
516.0295	0.002385
516.7008	0.002976
517.3723	0.002849
518.0439	0.003271
518.7155	0.001521
519.3873	0.004305
520.0592	0.003419
520.7312	0.002238
521.4033	0.003039
522.0755	0.002364
522.7478	0.001753
523.4202	0.002153
524.0927	0.003398
524.7653	0.003967
525.4380	0.002280
526.1108	0.004284
526.7837	0.002575
527.4568	0.001436
528.1299	0.003377
528.8031	0.002322
529.4765	0.004664
530.1499	0.003250
530.8234	0.005318
531.4971	0.005360
532.1708	0.005423
532.8447	0.002533
533.5186	0.005550
534.1927	0.004790
534.8668	0.007385
535.5411	0.006161
536.2155	0.006140
536.8899	0.006604
537.5645	0.007849
538.2392	0.008904
538.9139	0.007786
539.5888	0.007300
540.2638	0.007701
540.9389	0.008524
541.6140	0.010739
542.2893	0.009262
542.9647	0.012616
543.6402	0.011793
544.3158	0.013228
544.9915	0.013101
545.6673	0.012933
546.3432	0.011245
547.0192	0.013439
547.6953	0.014536
548.3715	0.017046
549.0478	0.015738
549.7242	0.014726
550.4007	0.014451
551.0773	0.014451
551.7540	0.014620
552.4308	0.016814
553.1077	0.017531
553.7847	0.020062
554.4618	0.018839
555.1390	0.019704
555.8163	0.019746
556.4937	0.021159
557.1712	0.022805
557.8488	0.022003
558.5266	0.021708
559.2044	0.020759
559.8823	0.020885
560.5603	0.027699
561.2384	0.031010
561.9166	0.029302
562.5949	0.027192
563.2733	0.027319
563.9519	0.029407
564.6305	0.030989
565.3092	0.033415
565.9880	0.032635
566.6669	0.034786
567.3459	0.043245
568.0250	0.046958
568.7043	0.053518
569.3836	0.063601
570.0630	0.085012
570.7425	0.088556
571.4221	0.104145
572.1018	0.114882
572.7816	0.098955
573.4615	0.113363
574.1415	0.130850
574.8216	0.143781
575.5018	0.140828
576.1821	0.127517
576.8626	0.148654
577.5431	0.159264
578.2237	0.198542
578.9044	0.165002
579.5851	0.162154
580.2660	0.167554
580.9470	0.168630
581.6281	0.265474
582.3093	0.253303
582.9906	0.196327
583.6720	0.156543
584.3535	0.156437
585.0351	0.179852
585.7167	0.195378
586.3985	0.168081
587.0804	0.175275
587.7624	0.184915
588.4445	0.164938
589.1266	0.143064
589.8089	0.133888
590.4913	0.123657
591.1737	0.104398
591.8563	0.103027
592.5389	0.124986
593.2217	0.163124
593.9046	0.159517
594.5875	0.141207
595.2705	0.161289
595.9537	0.137980
596.6369	0.119269
597.3203	0.123847
598.0037	0.115303
598.6872	0.127032
599.3709	0.151543
600.0546	0.150236
600.7384	0.149814
601.4223	0.151311
602.1064	0.138127
602.7905	0.140448
603.4747	0.154708
604.1590	0.140279
604.8434	0.126631
605.5279	0.131061
606.2125	0.138022
606.8972	0.126104
607.5819	0.131462
608.2668	0.120218
608.9518	0.115219
609.6369	0.105705
610.3220	0.123256
611.0073	0.115873
611.6927	0.111063
612.3781	0.105832
613.0637	0.103723
613.7493	0.104630
614.4351	0.105938
615.1209	0.102077
615.8068	0.108553
616.4929	0.095622
617.1790	0.089632
617.8652	0.092901
618.5515	0.084442
619.2379	0.073726
619.9244	0.073220
620.6110	0.077460
621.2977	0.057547
621.9845	0.064445
622.6714	0.068453
623.3584	0.076195
624.0454	0.068790
624.7326	0.072566
625.4199	0.067567
626.1072	0.062715
626.7947	0.055670
627.4822	0.056978
628.1698	0.053349
628.8576	0.045502
629.5454	0.052569
630.2333	0.048835
630.9213	0.044131
631.6094	0.041241
632.2976	0.042275
632.9859	0.039765
633.6743	0.034343
634.3628	0.035082
635.0514	0.032656
635.7400	0.034364
636.4288	0.036706
637.1177	0.036917
637.8066	0.033162
638.4957	0.033689
639.1848	0.032740
639.8740	0.031294
640.5633	0.031345
641.2528	0.028588
641.9423	0.024890
642.6319	0.025372
643.3216	0.022744
644.0113	0.022655
644.7012	0.022506
645.3912	0.021375
646.0812	0.021783
646.7714	0.019899
647.4616	0.019253
648.1520	0.024007
648.8424	0.028989
649.5329	0.027953
650.2236	0.024645
650.9143	0.023634
651.6051	0.024450
652.2960	0.026662
652.9870	0.026493
653.6780	0.026807
654.3692	0.028973
655.0605	0.049098
655.7518	0.767586
656.4433	1.000000
657.1348	0.711485
657.8264	0.431875
658.5181	0.323803
659.2099	0.232089
659.9018	0.054741
660.5938	0.023471
661.2859	0.019493
661.9781	0.018493
662.6704	0.017082
663.3627	0.018169
664.0552	0.015983
664.7477	0.016595
665.4403	0.020695
666.1330	0.017524
666.8259	0.018012
667.5188	0.017599
668.2117	0.016658
668.9048	0.015970
669.5980	0.018354
670.2913	0.019556
670.9846	0.017573
671.6781	0.021708
672.3716	0.027424
673.0652	0.027298
673.7589	0.025083
674.4527	0.022615
675.1466	0.021961
675.8406	0.019809
676.5347	0.020527
677.2288	0.018734
677.9231	0.023079
678.6174	0.023585
679.3119	0.028036
680.0064	0.029471
680.7010	0.028142
681.3957	0.029302
682.0905	0.028606
682.7854	0.024049
683.4803	0.026370
684.1754	0.027129
684.8705	0.031517
685.5658	0.037929
686.2611	0.034280
686.9565	0.035314
687.6520	0.033099
688.3476	0.031010
689.0433	0.030778
689.7390	0.029154
690.4349	0.027783
691.1308	0.031179
691.8269	0.030652
692.5230	0.030483
693.2192	0.030314
693.9155	0.031264
694.6119	0.028669
695.3083	0.028732
696.0049	0.026496
696.7016	0.029660
697.3983	0.031707
698.0951	0.031812
698.7920	0.029302
699.4890	0.030736
700.1861	0.027213
700.8833	0.023627
701.5806	0.022109
702.2779	0.023965
702.9753	0.023290
703.6729	0.023796
704.3705	0.021898
705.0682	0.020737
705.7660	0.019050
706.4638	0.025273
707.1618	0.031496
707.8599	0.030989
708.5580	0.030462
709.2562	0.029639
709.9545	0.025336
710.6529	0.027551
711.3514	0.025779
712.0500	0.022214
712.7486	0.024239
713.4474	0.025231
714.1462	0.028669
714.8451	0.028015
715.5441	0.029492
716.2432	0.025336
716.9424	0.023691
717.6416	0.021898
718.3410	0.022995
719.0404	0.022973
719.7399	0.023311
720.4395	0.023416
721.1392	0.025442
721.8390	0.024324
722.5388	0.022952
723.2388	0.024113
723.9388	0.022298
724.6389	0.020759
725.3391	0.026897
726.0394	0.028226
726.7398	0.027699
727.4403	0.025610
728.1408	0.028585
728.8414	0.028353
729.5421	0.031432
730.2429	0.030272
730.9438	0.034618
731.6448	0.036411
732.3458	0.032002
733.0470	0.036474
733.7482	0.036622
734.4495	0.042612
735.1509	0.038731
735.8524	0.041621
736.5539	0.041136
737.2556	0.039511
737.9573	0.036221
738.6591	0.031685
739.3610	0.036284
740.0630	0.035714
740.7651	0.032445
741.4672	0.029766
742.1695	0.027277
742.8718	0.028226
743.5742	0.024872
744.2767	0.025273
744.9792	0.023079
745.6819	0.024260
746.3846	0.023501
747.0874	0.023353
747.7903	0.023838
748.4933	0.023353
749.1964	0.023416
749.8995	0.028817
750.6028	0.031580
751.3061	0.029956
752.0095	0.033225
752.7130	0.030989
753.4166	0.029133
754.1202	0.033858
754.8239	0.031348
755.5278	0.033985
756.2317	0.039490
756.9356	0.041115
757.6397	0.047253
758.3438	0.046747
759.0481	0.043245
759.7524	0.049194
760.4568	0.051831
761.1613	0.051430
761.8658	0.043899
762.5705	0.039490
763.2752	0.039111
763.9800	0.041790
764.6849	0.047084
765.3898	0.045376
766.0949	0.041642
766.8000	0.033099
767.5052	0.029935
768.2105	0.033352
768.9159	0.041811
769.6214	0.038119
770.3269	0.037740
771.0325	0.041051
771.7382	0.037360
772.4440	0.032761
773.1499	0.032867
773.8558	0.030567
774.5618	0.026665
775.2679	0.023332
775.9741	0.024661
776.6804	0.023227
777.3868	0.019240
778.0932	0.019809
778.7997	0.023564
779.5063	0.025737
780.2130	0.024028
780.9197	0.026602
781.6265	0.028563
782.3335	0.028859
783.0405	0.028121
783.7475	0.030167
784.4547	0.024113
785.1619	0.024640
785.8692	0.022889
786.5766	0.025294
787.2841	0.022889
787.9917	0.024218
788.6993	0.024935
789.4070	0.025990
790.1148	0.021518
790.8227	0.020505
791.5306	0.020948
792.2387	0.020126
792.9468	0.018037
793.6550	0.019809
794.3632	0.025020
795.0716	0.029745
795.7800	0.022172
796.4885	0.020168
797.1971	0.017067
797.9058	0.019198
798.6145	0.019261
799.3233	0.018544
800.0322	0.017088
800.7412	0.017531
801.4503	0.014789
802.1594	0.013692
802.8686	0.013101
803.5779	0.015063
804.2873	0.013587
804.9968	0.014198
805.7063	0.014093
806.4159	0.016012
807.1256	0.019915
807.8354	0.018523
808.5452	0.017594
809.2551	0.017426
809.9651	0.016941
810.6752	0.014937
811.3853	0.015295
812.0956	0.012911
812.8059	0.011604
813.5163	0.012827
814.2267	0.014451
814.9373	0.015126
815.6479	0.013080
816.3586	0.010886
817.0694	0.011962
817.7802	0.011097
818.4912	0.011435
819.2022	0.011076
819.9133	0.009283
820.6244	0.011224
821.3357	0.013734
822.0470	0.009389
822.7584	0.011245
823.4698	0.008735
824.1814	0.008967
824.8930	0.008334
825.6047	0.011962
826.3165	0.010401
827.0283	0.009220
827.7402	0.010908
828.4522	0.008882
829.1643	0.010359
829.8765	0.010148
830.5887	0.006646
831.3010	0.007554
832.0134	0.005718
832.7259	0.006414
833.4384	0.006900
834.1510	0.008018
834.8637	0.008777
835.5765	0.008503
836.2893	0.008250
837.0022	0.005697
837.7152	0.006646
838.4283	0.006689
839.1414	0.005191
839.8546	0.005845
840.5679	0.006056
841.2813	0.006035
841.9947	0.005128
842.7082	0.005634
843.4218	0.002554
844.1355	0.004685
844.8492	0.003757
845.5631	0.005254
846.2770	0.004242
846.9909	0.004178
847.7050	0.005550
848.4191	0.003503
849.1333	0.003503
849.8475	0.003166
850.5619	0.005486
851.2763	0.003799
851.9908	0.002934
852.7053	0.007343
853.4200	0.009515
854.1347	0.009895
854.8495	0.012490
855.5643	0.010211
856.2792	0.010422
856.9942	0.010317
857.7093	0.009473
858.4245	0.009030
859.1397	0.007132
859.8550	0.009389
860.5704	0.004664
861.2858	0.006372
862.0013	0.005950
862.7169	0.004896
863.4326	0.006182
864.1483	0.004516
864.8642	0.005718
865.5800	0.004832
866.2960	0.003503
867.0120	0.004432
867.7281	0.002765
868.4443	0.005550
869.1606	0.003082
869.8769	0.004221
870.5933	0.004010
871.3097	0.005191
872.0263	0.003925
872.7429	0.004516
873.4596	0.004685
874.1763	0.003904
874.8932	0.003735
875.6101	0.005170
876.3270	0.005550
877.0441	0.003967
877.7612	0.006815
878.4784	0.005022
879.1957	0.006098
879.9130	0.006963
880.6304	0.007321
881.3479	0.006014
882.0654	0.007153
882.7831	0.004200
883.5007	0.005296
884.2185	0.005613
884.9363	0.006098
885.6542	0.005128
886.3722	0.006225
887.0903	0.004853
887.8084	0.005191
888.5266	0.003588
889.2448	0.005001
889.9632	0.002976
890.6816	0.003292
891.4001	0.004094
892.1186	0.004495
892.8372	0.003377
893.5559	0.004453
894.2747	0.003588
894.9935	0.004326
895.7124	0.003672
896.4314	0.003778
897.1504	0.004410
897.8695	0.005296
898.5887	0.004474
899.3079	0.002512
900.0272	0.004200
900.7466	0.002807
901.4661	0.003503
902.1856	0.003820
902.9052	0.003799
903.6249	0.003883
904.3446	0.002090
905.0644	0.005212
905.7843	0.004073
906.5043	0.002744
907.2243	0.003377
907.9444	0.004221
908.6645	0.001921
909.3847	0.002849
910.1050	0.001668
910.8254	0.004664
911.5458	0.003250
912.2663	0.002280
912.9869	0.004537
913.7075	0.001816
914.4283	0.004010
915.1490	0.001900
915.8699	0.002786
916.5908	0.003672
917.3118	0.003208
918.0328	0.002533
918.7539	0.003883
919.4751	0.002744
920.1964	0.002849
920.9177	0.003461
921.6391	0.002132
922.3606	0.003145
923.0821	0.002280
923.8037	0.001879
924.5254	0.001499
925.2471	0.002786
925.9689	0.001478
926.6908	0.001964
927.4127	0.001668
928.1347	0.002596
928.8568	0.001647
929.5789	0.003145
930.3011	0.001900
931.0234	0.001668
931.7457	0.000740
932.4681	0.001394
933.1906	0.001478
933.9131	0.000909
934.6358	0.001521
935.3584	0.002259
936.0812	0.002892
936.8040	0.000719
937.5269	0.002069
938.2498	0.000255
938.9728	0.002744
939.6959	0.000381
940.4190	0.001120
941.1422	0.001120
941.8655	0.001141
942.5889	0.000613
943.3123	0.000803
944.0357	0.000930
944.7593	0.002174
945.4829	0.000867
946.2066	0.002027
946.9303	0.002322
947.6541	-0.000040
948.3780	0.001035
949.1019	0.001668
949.8259	0.001162
950.5500	-0.000104
951.2741	-0.000019
951.9983	0.001457
952.7226	0.002554
953.4469	0.002533
954.1713	0.001014
954.8958	0.000339
955.6203	0.001099
956.3449	0.000086
957.0696	0.001035
957.7943	0.001415
958.5191	0.000002
959.2439	0.000846
959.9688	0.000065
960.6938	-0.000336
961.4189	-0.000441
962.1440	0.000824
962.8692	0.000550
963.5944	-0.000083
964.3197	-0.000104
965.0451	0.000824
965.7705	0.000761
966.4960	0.001141
967.2216	-0.000863
967.9472	0.000677
968.6729	0.000888
969.3987	0.001647
970.1245	0.001014
970.8504	0.001352
971.5763	0.000592
972.3023	0.000909
973.0284	0.000360
973.7545	-0.000188
974.4807	0.000044
975.2070	-0.000694
975.9333	0.001394
976.6597	0.000571
977.3862	0.000656
978.1127	0.000803
978.8393	0.000086
979.5659	0.000403
980.2926	0.001204
981.0194	-0.000547
981.7462	-0.000673
982.4731	0.001310
983.2001	0.000171
983.9271	0.001099
984.6542	0.000972
985.3814	0.000318
986.1086	0.000613
986.8358	0.000613
987.5632	0.000065
988.2906	0.000107
989.0180	0.000339
989.7456	0.001710
990.4732	0.000698
991.2008	0.000360
991.9285	0.000719
992.6563	-0.000104
993.3841	-0.000357
994.1120	0.001310
994.8400	-0.000737
995.5680	-0.000694
996.2961	0.000550
997.0242	0.000107
997.7524	0.000023
998.4807	0.000550
999.2090	0.000403
999.9374	0.000044
1000.67	-0.000146
1001.39	-0.000779
1002.12	0.002132
1002.85	0.000782
1003.58	0.000466
1004.31	-0.001074
1005.04	0.000993
1005.77	-0.000568
1006.5	0.001436
1007.22	-0.000188
1007.95	0.001373
1008.68	0.000445
1009.41	0.001225
1010.14	0.000360
1010.87	-0.000779
1011.6	-0.000104
1012.33	0.000993
1013.06	0.001014
1013.79	-0.000483
1014.52	-0.000167
1015.25	0.000571
1015.98	0.000107
1016.71	-0.000040
1017.44	0.000972
1018.17	-0.000104
1018.9	-0.000083
1019.63	-0.000104
1020.36	-0.001116
1021.09	0.000613
1021.82	-0.000779
1022.55	0.000381
1023.03	-0.000125