File: Auto_Polymerization/Spectra/MRG-061-F-4_spectra_while_stopped_no_alu_foil/spectrum_2025-06-20_07-53-01.txt
# Wavelength (nm)	Intensity (a.u.)
197.7802	0.000888
198.3922	0.000339
199.0044	-0.000294
199.6168	0.001436
200.2292	0.000740
200.8418	-0.001348
201.4546	0.000149
202.0674	0.000171
202.6805	-0.000040
203.2936	0.000719
203.9069	0.000972
204.5203	-0.000272
205.1338	0.002301
205.7475	0.001521
206.3614	0.000571
206.9753	0.000128
207.5894	0.001183
208.2036	-0.000420
208.8180	0.001162
209.4325	-0.000589
210.0471	-0.000420
210.6618	-0.000884
211.2767	-0.000547
211.8918	-0.000167
212.5069	0.000740
213.1222	0.000403
213.7376	0.000867
214.3532	-0.000863
214.9689	0.000656
215.5847	0.000993
216.2007	0.000508
216.8168	0.001056
217.4330	0.001626
218.0494	0.001014
218.6659	0.002111
219.2825	-0.001264
219.8992	0.000803
220.5161	0.001225
221.1332	0.001183
221.7503	0.000044
222.3676	0.000508
222.9850	0.000824
223.6026	-0.000083
224.2203	0.000508
224.8381	-0.000504
225.4561	0.000107
226.0742	0.000592
226.6924	0.001689
227.3107	0.001056
227.9292	0.000276
228.5478	0.000719
229.1666	0.000403
229.7855	0.001668
230.4045	-0.000125
231.0236	0.000656
231.6429	0.000508
232.2623	-0.000504
232.8818	-0.000462
233.5015	-0.000357
234.1213	0.000107
234.7413	0.001267
235.3613	0.000318
235.9815	0.000930
236.6018	0.000677
237.2223	0.000276
237.8429	0.000677
238.4636	0.001331
239.0845	0.000993
239.7055	0.001246
240.3266	-0.000483
240.9478	0.001352
241.5692	0.000044
242.1907	0.001689
242.8124	-0.000589
243.4341	-0.000926
244.0560	0.000592
244.6781	-0.000083
245.3002	0.001288
245.9225	0.000951
246.5449	-0.001053
247.1675	-0.000610
247.7902	0.000107
248.4130	-0.000209
249.0359	-0.000083
249.6590	0.000403
250.2822	-0.001180
250.9056	0.001204
251.5290	0.000529
252.1526	-0.000504
252.7763	0.000550
253.4002	0.000550
254.0242	-0.000884
254.6483	0.000107
255.2725	0.000086
255.8969	0.001225
256.5214	0.000044
257.1460	0.000993
257.7708	0.000466
258.3957	0.000192
259.0207	0.000635
259.6459	0.000993
260.2711	0.000381
260.8965	0.000381
261.5221	-0.000272
262.1477	0.000149
262.7735	-0.000905
263.3995	-0.000125
264.0255	-0.000589
264.6517	0.001499
265.2780	-0.000694
265.9044	0.001394
266.5310	0.000613
267.1577	0.001816
267.7845	0.000824
268.4114	0.000297
269.0385	0.000213
269.6657	-0.000715
270.2931	0.000466
270.9205	0.000171
271.5481	0.001310
272.1758	-0.000083
272.8037	-0.000357
273.4316	0.000571
274.0597	-0.000547
274.6880	0.000023
275.3163	-0.000737
275.9448	0.001056
276.5734	0.000403
277.2022	-0.001454
277.8310	0.001331
278.4600	-0.000526
279.0891	0.000213
279.7184	0.000403
280.3477	0.000571
280.9772	0.000972
281.6069	0.000677
282.2366	-0.000462
282.8665	-0.000062
283.4965	0.000867
284.1266	0.000424
284.7569	0.000192
285.3873	0.000424
286.0178	0.000234
286.6484	0.000339
287.2792	0.001542
287.9101	0.001478
288.5411	-0.000589
289.1723	-0.000040
289.8035	0.000656
290.4349	0.001605
291.0665	-0.000146
291.6981	-0.000715
292.3299	0.000234
292.9618	0.000297
293.5938	0.000339
294.2260	-0.000209
294.8582	0.001499
295.4906	-0.000167
296.1232	-0.000146
296.7558	0.001078
297.3886	-0.000568
298.0215	0.000339
298.6545	-0.000167
299.2877	-0.000990
299.9210	0.001499
300.5544	-0.000399
301.1879	0.000508
301.8215	0.000930
302.4553	-0.000040
303.0892	0.000698
303.7233	0.000276
304.3574	0.000255
304.9917	-0.000083
305.6261	-0.000568
306.2606	0.000234
306.8953	0.000824
307.5301	-0.000083
308.1650	0.001647
308.8000	0.000276
309.4351	-0.000568
310.0704	0.000487
310.7058	0.001162
311.3413	0.001310
311.9770	0.000107
312.6127	0.000972
313.2486	0.001078
313.8846	0.001078
314.5208	0.000149
315.1570	0.000592
315.7934	0.000803
316.4299	-0.000019
317.0666	-0.000610
317.7033	0.000213
318.3402	-0.000462
318.9772	-0.000589
319.6143	0.000867
320.2516	0.000445
320.8890	-0.000062
321.5265	0.000381
322.1641	-0.000251
322.8018	0.000909
323.4397	0.000487
324.0777	0.001478
324.7158	-0.000294
325.3540	0.000065
325.9924	0.001035
326.6308	0.001035
327.2694	0.000297
327.9082	0.000677
328.5470	-0.000019
329.1860	0.002364
329.8251	0.000255
330.4643	0.000656
331.1036	-0.000526
331.7431	0.000128
332.3826	0.000297
333.0223	0.001352
333.6622	0.000972
334.3021	-0.000188
334.9422	-0.000209
335.5823	0.000149
336.2227	-0.000737
336.8631	0.001605
337.5036	0.000107
338.1443	0.001373
338.7851	-0.001053
339.4260	-0.000378
340.0670	0.001478
340.7082	0.001141
341.3495	0.001288
341.9909	0.000044
342.6324	0.000276
343.2740	0.002027
343.9158	0.000466
344.5577	0.001310
345.1997	-0.001243
345.8418	-0.000315
346.4840	0.000213
347.1264	0.000867
347.7689	0.000487
348.4115	-0.000188
349.0542	0.000867
349.6971	0.000171
350.3400	-0.001011
350.9831	0.001204
351.6263	0.001394
352.2696	0.001288
352.9131	-0.000715
353.5566	-0.000251
354.2003	0.000571
354.8441	-0.000526
355.4881	0.000107
356.1321	0.002153
356.7763	0.000888
357.4206	0.001394
358.0650	0.000846
358.7095	0.000002
359.3541	0.000339
359.9989	0.001373
360.6438	0.000403
361.2888	0.000740
361.9339	-0.000209
362.5791	-0.000040
363.2245	0.000529
363.8699	0.000930
364.5155	0.001584
365.1612	-0.000589
365.8071	-0.000526
366.4530	0.001035
367.0991	0.000044
367.7453	0.000487
368.3916	0.000698
369.0380	0.000761
369.6845	-0.000336
370.3312	0.000318
370.9780	0.000719
371.6249	0.000487
372.2719	0.000677
372.9190	0.000550
373.5663	0.001921
374.2136	-0.000905
374.8611	0.000149
375.5087	0.000550
376.1564	0.000656
376.8043	0.000740
377.4522	-0.000821
378.1003	0.000824
378.7485	0.001078
379.3968	-0.000167
380.0452	-0.000441
380.6938	0.000571
381.3424	0.000550
381.9912	0.001352
382.6401	-0.000462
383.2891	0.001204
383.9382	-0.000104
384.5875	0.001331
385.2368	0.000508
385.8863	0.000192
386.5359	0.000276
387.1856	0.001584
387.8355	0.001499
388.4854	0.001921
389.1355	0.002090
389.7856	0.002132
390.4359	0.002153
391.0863	0.003250
391.7369	0.004157
392.3875	0.004980
393.0383	0.007153
393.6891	0.005317
394.3401	0.005655
394.9912	0.008566
395.6425	0.009157
396.2938	0.008355
396.9453	0.009642
397.5968	0.010148
398.2485	0.011899
398.9003	0.014472
399.5522	0.013396
400.2043	0.015000
400.8564	0.015970
401.5087	0.015147
402.1610	0.017046
402.8135	0.014873
403.4661	0.017299
404.1189	0.018100
404.7717	0.018607
405.4246	0.019640
406.0777	0.018733
406.7309	0.018227
407.3842	0.018100
408.0376	0.020231
408.6911	0.020526
409.3448	0.017910
409.9985	0.020442
410.6524	0.020062
411.3064	0.020146
411.9605	0.020421
412.6147	0.022235
413.2690	0.022825
413.9234	0.021961
414.5780	0.022403
415.2326	0.022340
415.8874	0.020779
416.5423	0.021623
417.1973	0.022678
417.8524	0.022298
418.5077	0.023332
419.1630	0.024070
419.8185	0.022256
420.4741	0.026559
421.1298	0.024428
421.7856	0.029175
422.4415	0.026158
423.0975	0.026243
423.7536	0.025568
424.4099	0.024618
425.0663	0.024829
425.7228	0.024850
426.3793	0.023205
427.0361	0.023353
427.6929	0.023606
428.3498	0.022868
429.0068	0.023437
429.6640	0.025082
430.3213	0.030187
430.9787	0.028099
431.6362	0.025694
432.2938	0.021644
432.9515	0.020948
433.6093	0.024787
434.2673	0.026517
434.9253	0.023458
435.5835	0.023205
436.2418	0.022024
436.9001	0.024850
437.5586	0.021961
438.2173	0.021771
438.8760	0.022952
439.5348	0.024007
440.1938	0.023711
440.8528	0.021918
441.5120	0.027951
442.1713	0.027867
442.8307	0.024956
443.4902	0.027424
444.1498	0.026011
444.8095	0.022403
445.4694	0.024218
446.1293	0.025125
446.7894	0.023289
447.4496	0.023690
448.1098	0.023374
448.7702	0.021982
449.4307	0.022994
450.0914	0.021349
450.7521	0.021243
451.4129	0.019788
452.0739	0.021328
452.7349	0.020168
453.3961	0.017531
454.0574	0.016771
454.7188	0.015949
455.3803	0.017067
456.0419	0.018100
456.7036	0.014430
457.3654	0.015358
458.0274	0.016455
458.6894	0.017953
459.3516	0.015970
460.0138	0.015379
460.6762	0.015337
461.3387	0.014873
462.0013	0.013417
462.6640	0.012194
463.3268	0.012510
463.9897	0.011857
464.6528	0.014135
465.3159	0.013755
465.9792	0.014282
466.6425	0.011540
467.3060	0.010823
467.9696	0.010865
468.6333	0.010760
469.2970	0.009684
469.9610	0.009642
470.6250	0.008228
471.2891	0.008017
471.9533	0.006836
472.6177	0.008123
473.2821	0.007553
473.9467	0.007743
474.6113	0.006689
475.2761	0.009072
475.9410	0.006562
476.6060	0.007174
477.2711	0.005908
477.9363	0.006056
478.6016	0.005781
479.2670	0.005971
479.9325	0.005655
480.5982	0.005929
481.2639	0.005971
481.9298	0.006246
482.5957	0.006035
483.2618	0.005760
483.9280	0.004811
484.5943	0.004980
485.2606	0.005634
485.9271	0.017257
486.5937	0.011287
487.2605	0.006984
487.9273	0.006035
488.5942	0.005296
489.2612	0.003060
489.9284	0.003081
490.5956	0.003166
491.2630	0.004453
491.9304	0.005275
492.5980	0.004263
493.2657	0.001710
493.9334	0.003377
494.6013	0.004368
495.2693	0.004853
495.9374	0.002406
496.6056	0.002238
497.2739	0.003039
497.9423	0.002364
498.6109	0.003018
499.2795	0.003124
499.9482	0.004790
500.6171	0.003039
501.2860	0.003271
501.9551	0.003081
502.6242	0.003630
503.2935	0.004389
503.9628	0.002406
504.6323	0.001858
505.3019	0.002259
505.9716	0.000824
506.6414	0.002681
507.3113	0.002617
507.9813	0.002470
508.6514	0.003145
509.3216	0.001183
509.9919	0.002301
510.6623	0.001394
511.3329	0.002744
512.0035	0.002428
512.6742	0.002449
513.3451	0.002174
514.0160	0.001563
514.6871	0.001647
515.3582	0.001605
516.0295	0.001816
516.7008	0.001521
517.3723	0.002807
518.0439	0.002702
518.7155	0.002702
519.3873	0.004094
520.0592	0.002322
520.7312	0.003524
521.4033	0.001626
522.0755	0.001774
522.7478	0.003292
523.4202	0.001753
524.0927	0.003820
524.7653	0.004305
525.4380	0.002723
526.1108	0.003356
526.7837	0.004136
527.4568	0.003778
528.1299	0.003313
528.8031	0.004431
529.4765	0.004010
530.1499	0.003229
530.8234	0.003693
531.4971	0.004642
532.1708	0.004284
532.8447	0.005528
533.5186	0.006731
534.1927	0.006330
534.8668	0.005803
535.5411	0.006414
536.2155	0.006942
536.8899	0.006351
537.5645	0.005950
538.2392	0.007068
538.9139	0.008397
539.5888	0.008482
540.2638	0.007870
540.9389	0.008967
541.6140	0.008228
542.2893	0.009178
542.9647	0.010633
543.6402	0.010190
544.3158	0.013080
544.9915	0.011118
545.6673	0.011920
546.3432	0.013038
547.0192	0.014135
547.6953	0.014282
548.3715	0.017510
549.0478	0.014683
549.7242	0.013818
550.4007	0.013966
551.0773	0.014557
551.7540	0.014303
552.4308	0.018649
553.1077	0.017257
553.7847	0.019725
554.4618	0.018796
555.1390	0.018944
555.8163	0.021750
556.4937	0.023564
557.1712	0.023311
557.8488	0.021834
558.5266	0.021518
559.2044	0.020610
559.8823	0.023880
560.5603	0.026791
561.2384	0.028500
561.9166	0.027403
562.5949	0.028457
563.2733	0.028310
563.9519	0.030039
564.6305	0.032043
565.3092	0.032782
565.9880	0.031368
566.6669	0.035693
567.3459	0.042253
568.0250	0.045691
568.7043	0.053158
569.3836	0.063368
570.0630	0.083344
570.7425	0.086002
571.4221	0.102856
572.1018	0.113803
572.7816	0.099333
573.4615	0.114563
574.1415	0.129286
574.8216	0.139264
575.5018	0.142744
576.1821	0.128569
576.8626	0.146351
577.5431	0.159282
578.2237	0.197546
578.9044	0.165294
579.5851	0.162636
580.2660	0.171896
580.9470	0.166074
581.6281	0.261313
582.3093	0.250239
582.9906	0.191956
583.6720	0.153671
584.3535	0.156012
585.0351	0.179237
585.7167	0.194487
586.3985	0.166348
587.0804	0.174237
587.7624	0.182759
588.4445	0.164682
589.1266	0.140361
589.8089	0.133421
590.4913	0.120806
591.1737	0.104965
591.8563	0.106906
592.5389	0.124603
593.2217	0.168268
593.9046	0.157679
594.5875	0.137893
595.2705	0.157594
595.9537	0.140614
596.6369	0.112812
597.3203	0.120532
598.0037	0.115976
598.6872	0.128611
599.3709	0.148840
600.0546	0.141900
600.7384	0.144811
601.4223	0.148882
602.1064	0.136311
602.7905	0.137766
603.4747	0.151751
604.1590	0.143883
604.8434	0.122705
605.5279	0.132788
606.2125	0.141626
606.8972	0.122895
607.5819	0.128569
608.2668	0.119456
608.9518	0.116841
609.6369	0.106020
610.3220	0.121777
611.0073	0.116820
611.6927	0.112010
612.3781	0.102729
613.0637	0.104881
613.7493	0.100156
614.4351	0.104311
615.1209	0.101316
615.8068	0.104881
616.4929	0.093427
617.1790	0.090431
617.8652	0.086128
618.5515	0.081720
619.2379	0.075539
619.9244	0.077121
620.6110	0.075729
621.2977	0.056913
621.9845	0.065730
622.6714	0.065393
623.3584	0.071742
624.0454	0.070835
624.7326	0.073704
625.4199	0.067460
626.1072	0.062250
626.7947	0.055183
627.4822	0.057440
628.1698	0.052694
628.8576	0.046830
629.5454	0.052969
630.2333	0.049572
630.9213	0.046261
631.6094	0.043750
632.2976	0.043877
632.9859	0.033984
633.6743	0.035714
634.3628	0.035355
635.0514	0.033288
635.7400	0.032718
636.4288	0.035904
637.1177	0.035186
637.8066	0.034174
638.4957	0.033942
639.1848	0.032676
639.8740	0.030145
640.5633	0.028962
641.2528	0.027235
641.9423	0.025399
642.6319	0.024193
643.3216	0.024254
644.0113	0.024538
644.7012	0.020387
645.3912	0.021844
646.0812	0.020380
646.7714	0.018988
647.4616	0.021072
648.1520	0.022317
648.8424	0.025504
649.5329	0.028359
650.2236	0.025548
650.9143	0.023060
651.6051	0.022143
652.2960	0.024950
652.9870	0.022447
653.6780	0.027299
654.3692	0.028020
655.0605	0.047455
655.7518	0.782705
656.4433	1.000000
657.1348	0.700396
657.8264	0.429926
658.5181	0.320073
659.2099	0.232657
659.9018	0.056938
660.5938	0.023050
661.2859	0.019430
661.9781	0.017921
662.6704	0.018121
663.3627	0.016251
664.0552	0.017124
664.7477	0.018189
665.4403	0.019257
666.1330	0.019978
666.8259	0.018264
667.5188	0.017261
668.2117	0.016553
668.9048	0.017678
669.5980	0.017172
670.2913	0.016455
670.9846	0.017489
671.6781	0.021539
672.3716	0.026875
673.0652	0.027065
673.7589	0.023247
674.4527	0.022530
675.1466	0.021454
675.8406	0.021728
676.5347	0.018564
677.2288	0.019408
677.9231	0.021813
678.6174	0.023606
679.3119	0.026200
680.0064	0.027361
680.7010	0.028921
681.3957	0.028605
682.0905	0.027171
682.7854	0.022446
683.4803	0.026053
684.1754	0.028964
684.8705	0.031706
685.5658	0.038076
686.2611	0.035777
686.9565	0.036030
687.6520	0.034237
688.3476	0.030229
689.0433	0.028120
689.7390	0.026918
690.4349	0.026411
691.1308	0.029322
691.8269	0.031052
692.5230	0.031685
693.2192	0.032360
693.9155	0.031305
694.6119	0.025736
695.3083	0.028626
696.0049	0.025314
696.7016	0.028985
697.3983	0.031622
698.0951	0.032381
698.7920	0.029512
699.4890	0.030567
700.1861	0.024428
700.8833	0.023838
701.5806	0.022973
702.2779	0.023521
702.9753	0.023880
703.6729	0.023922
704.3705	0.023753
705.0682	0.018691
705.7660	0.019218
706.4638	0.024703
707.1618	0.029997
707.8599	0.029702
708.5580	0.030377
709.2562	0.027361
709.9545	0.029069
710.6529	0.027740
711.3514	0.025525
712.0500	0.022762
712.7486	0.023289
713.4474	0.024787
714.1462	0.028563
714.8451	0.027213
715.5441	0.028331
716.2432	0.023880
716.9424	0.023416
717.6416	0.022129
718.3410	0.026074
719.0404	0.023015
719.7399	0.024956
720.4395	0.023901
721.1392	0.024365
721.8390	0.024661
722.5388	0.022973
723.2388	0.021665
723.9388	0.023163
724.6389	0.021307
725.3391	0.024576
726.0394	0.024661
726.7398	0.027993
727.4403	0.027171
728.1408	0.027867
728.8414	0.027825
729.5421	0.027930
730.2429	0.029238
730.9438	0.035081
731.6448	0.033963
732.3458	0.030061
733.0470	0.033689
733.7482	0.034490
734.4495	0.043286
735.1509	0.040333
735.8524	0.038245
736.5539	0.037718
737.2556	0.038709
737.9573	0.034575
738.6591	0.034743
739.3610	0.037591
740.0630	0.036347
740.7651	0.030525
741.4672	0.027719
742.1695	0.028268
742.8718	0.027698
743.5742	0.025483
744.2767	0.022994
744.9792	0.025610
745.6819	0.021159
746.3846	0.022235
747.0874	0.023100
747.7903	0.023521
748.4933	0.023775
749.1964	0.022825
749.8995	0.028964
750.6028	0.032782
751.3061	0.031157
752.0095	0.033836
752.7130	0.031010
753.4166	0.029027
754.1202	0.033879
754.8239	0.029997
755.5278	0.032128
756.2317	0.036410
756.9356	0.040586
757.6397	0.049762
758.3438	0.044784
759.0481	0.041472
759.7524	0.046029
760.4568	0.049594
761.1613	0.051703
761.8658	0.041831
762.5705	0.039468
763.2752	0.039764
763.9800	0.040038
764.6849	0.046704
765.3898	0.046872
766.0949	0.042126
766.8000	0.033204
767.5052	0.030714
768.2105	0.034343
768.9159	0.039152
769.6214	0.037549
770.3269	0.034997
771.0325	0.039743
771.7382	0.038920
772.4440	0.032191
773.1499	0.031875
773.8558	0.029217
774.5618	0.025947
775.2679	0.026243
775.9741	0.021771
776.6804	0.021053
777.3868	0.020758
778.0932	0.018902
778.7997	0.021686
779.5063	0.026285
780.2130	0.022720
780.9197	0.025230
781.6265	0.027424
782.3335	0.027888
783.0405	0.026896
783.7475	0.027719
784.4547	0.025040
785.1619	0.023986
785.8692	0.023880
786.5766	0.024829
787.2841	0.022382
787.9917	0.022066
788.6993	0.024661
789.4070	0.023184
790.1148	0.021032
790.8227	0.019661
791.5306	0.018881
792.2387	0.017362
792.9468	0.017510
793.6550	0.018206
794.3632	0.025420
795.0716	0.026454
795.7800	0.021939
796.4885	0.018269
797.1971	0.018733
797.9058	0.019703
798.6145	0.018923
799.3233	0.021201
800.0322	0.016919
800.7412	0.015696
801.4503	0.015759
802.1594	0.014978
802.8686	0.012405
803.5779	0.015168
804.2873	0.013038
804.9968	0.015379
805.7063	0.014409
806.4159	0.018206
807.1256	0.018121
807.8354	0.019050
808.5452	0.019282
809.2551	0.018016
809.9651	0.017489
810.6752	0.016729
811.3853	0.013776
812.0956	0.015379
812.8059	0.010000
813.5163	0.010992
814.2267	0.016328
814.9373	0.015042
815.6479	0.011392
816.3586	0.012658
817.0694	0.013375
817.7802	0.011498
818.4912	0.010760
819.2022	0.009937
819.9133	0.009494
820.6244	0.011688
821.3357	0.014535
822.0470	0.009747
822.7584	0.009642
823.4698	0.009642
824.1814	0.008692
824.8930	0.007596
825.6047	0.010021
826.3165	0.010507
827.0283	0.011350
827.7402	0.010886
828.4522	0.011561
829.1643	0.011730
829.8765	0.011414
830.5887	0.008186
831.3010	0.006246
832.0134	0.005655
832.7259	0.005971
833.4384	0.007722
834.1510	0.009009
834.8637	0.007701
835.5765	0.008903
836.2893	0.007026
837.0022	0.006773
837.7152	0.007047
838.4283	0.005465
839.1414	0.005170
839.8546	0.005507
840.5679	0.006773
841.2813	0.006836
841.9947	0.005360
842.7082	0.004052
843.4218	0.003482
844.1355	0.004031
844.8492	0.003799
845.5631	0.006330
846.2770	0.002997
846.9909	0.004853
847.7050	0.003124
848.4191	0.004685
849.1333	0.004874
849.8475	0.004347
850.5619	0.005381
851.2763	0.004263
851.9908	0.004052
852.7053	0.006731
853.4200	0.011182
854.1347	0.010507
854.8495	0.011034
855.5643	0.011034
856.2792	0.008376
856.9942	0.009452
857.7093	0.010127
858.4245	0.008650
859.1397	0.007870
859.8550	0.007617
860.5704	0.006267
861.2858	0.007153
862.0013	0.004389
862.7169	0.003693
863.4326	0.005128
864.1483	0.004664
864.8642	0.003081
865.5800	0.003567
866.2960	0.005106
867.0120	0.003989
867.7281	0.004263
868.4443	0.004917
869.1606	0.004727
869.8769	0.004769
870.5933	0.005001
871.3097	0.003904
872.0263	0.003756
872.7429	0.004410
873.4596	0.003967
874.1763	0.003419
874.8932	0.003461
875.6101	0.005254
876.3270	0.003567
877.0441	0.003335
877.7612	0.006119
878.4784	0.005064
879.1957	0.005381
879.9130	0.005064
880.6304	0.006963
881.3479	0.005781
882.0654	0.006984
882.7831	0.004600
883.5007	0.004706
884.2185	0.003925
884.9363	0.005317
885.6542	0.005486
886.3722	0.005676
887.0903	0.005592
887.8084	0.002406
888.5266	0.004157
889.2448	0.003503
889.9632	0.002723
890.6816	0.004052
891.4001	0.004621
892.1186	0.003124
892.8372	0.002913
893.5559	0.002976
894.2747	0.002491
894.9935	0.004642
895.7124	0.004516
896.4314	0.003841
897.1504	0.003714
897.8695	0.003250
898.5887	0.002681
899.3079	0.003482
900.0272	0.002934
900.7466	0.005001
901.4661	0.002174
902.1856	0.003756
902.9052	0.003292
903.6249	0.002723
904.3446	0.003609
905.0644	0.002533
905.7843	0.004094
906.5043	0.003672
907.2243	0.004706
907.9444	0.004853
908.6645	0.003081
909.3847	0.003841
910.1050	0.002723
910.8254	0.003693
911.5458	0.002786
912.2663	0.003841
912.9869	0.003398
913.7075	0.002428
914.4283	0.001415
915.1490	0.003313
915.8699	0.001436
916.5908	0.002934
917.3118	0.002828
918.0328	0.004199
918.7539	0.001985
919.4751	0.002491
920.1964	0.003250
920.9177	0.003630
921.6391	0.002892
922.3606	0.004031
923.0821	0.002217
923.8037	0.001774
924.5254	0.002807
925.2471	0.003862
925.9689	0.001837
926.6908	0.002744
927.4127	0.002660
928.1347	0.001394
928.8568	0.002006
929.5789	0.001014
930.3011	0.001141
931.0234	0.001056
931.7457	0.000930
932.4681	0.003103
933.1906	0.000972
933.9131	0.001331
934.6358	0.001921
935.3584	0.002322
936.0812	0.001478
936.8040	0.000677
937.5269	0.002660
938.2498	0.000846
938.9728	0.002153
939.6959	0.001035
940.4190	0.002617
941.1422	0.000255
941.8655	0.001394
942.5889	0.001563
943.3123	0.000951
944.0357	0.001521
944.7593	0.001035
945.4829	0.001584
946.2066	0.000508
946.9303	0.000550
947.6541	0.002153
948.3780	0.000213
949.1019	0.000698
949.8259	0.001499
950.5500	-0.000294
951.2741	0.000297
951.9983	0.000403
952.7226	0.001183
953.4469	0.001584
954.1713	0.001521
954.8958	0.001246
955.6203	0.000487
956.3449	0.003103
957.0696	0.000487
957.7943	0.001942
958.5191	-0.000272
959.2439	0.002723
959.9688	0.001120
960.6938	0.001668
961.4189	0.000550
962.1440	0.001246
962.8692	-0.000842
963.5944	0.001120
964.3197	-0.000083
965.0451	0.001457
965.7705	0.001183
966.4960	-0.000420
967.2216	0.000698
967.9472	0.000508
968.6729	0.000740
969.3987	0.001394
970.1245	0.000297
970.8504	0.001331
971.5763	0.000381
972.3023	-0.000673
973.0284	0.001056
973.7545	0.000297
974.4807	0.000002
975.2070	0.000782
975.9333	0.000065
976.6597	0.001563
977.3862	0.001331
978.1127	0.001542
978.8393	0.001099
979.5659	0.001288
980.2926	-0.000842
981.0194	0.000550
981.7462	0.000803
982.4731	-0.000399
983.2001	0.001394
983.9271	0.001246
984.6542	0.001942
985.3814	0.001141
986.1086	0.000487
986.8358	0.001331
987.5632	-0.000821
988.2906	-0.000146
989.0180	-0.000378
989.7456	0.001689
990.4732	0.000930
991.2008	0.000803
991.9285	0.000888
992.6563	0.000698
993.3841	0.000234
994.1120	-0.000652
994.8400	-0.000167
995.5680	0.001816
996.2961	0.000002
997.0242	0.000782
997.7524	-0.000947
998.4807	0.000951
999.2090	0.000677
999.9374	-0.001137
1000.67	0.000023
1001.39	0.000255
1002.12	0.001858
1002.85	-0.000526
1003.58	0.001689
1004.31	0.001099
1005.04	0.000930
1005.77	0.000339
1006.5	-0.000610
1007.22	-0.000526
1007.95	-0.000272
1008.68	-0.002108
1009.41	0.000255
1010.14	-0.000209
1010.87	0.000086
1011.6	0.000086
1012.33	0.000149
1013.06	0.000677
1013.79	0.001078
1014.52	-0.000589
1015.25	0.000761
1015.98	-0.000884
1016.71	0.000740
1017.44	0.000171
1018.17	0.000086
1018.9	0.002069
1019.63	0.000318
1020.36	0.000086
1021.09	0.000360
1021.82	-0.001897
1022.55	0.000339
1023.03	0.000318