File: Auto_Polymerization/Spectra/MRG-061-F-3_pure_compounds_spectra_test/DMSO+MMA_spectrum_2025-06-19_14-46-53.txt
# Wavelength (nm)	Intensity (a.u.)
197.7802	0.000872
198.3922	0.000619
199.0044	-0.000288
199.6168	-0.000014
200.2292	0.000893
200.8418	-0.000331
201.4546	0.002582
202.0674	-0.000098
202.6805	0.000281
203.2936	0.000324
203.9069	-0.000689
204.5203	0.001020
205.1338	0.000598
205.7475	0.000429
206.3614	-0.000352
206.9753	-0.000605
207.5894	0.001105
208.2036	0.000535
208.8180	0.001442
209.4325	0.000260
210.0471	0.000492
210.6618	0.000788
211.2767	-0.001048
211.8918	0.000049
212.5069	0.001337
213.1222	-0.000542
213.7376	0.000007
214.3532	-0.000183
214.9689	-0.000689
215.5847	-0.000879
216.2007	0.000767
216.8168	-0.001470
217.4330	0.000408
218.0494	0.001316
218.6659	0.001252
219.2825	0.000303
219.8992	0.001189
220.5161	0.000197
221.1332	-0.000478
221.7503	-0.001386
222.3676	0.001252
222.9850	-0.000162
223.6026	0.000915
224.2203	-0.000478
224.8381	0.000999
225.4561	0.000091
226.0742	0.000598
226.6924	0.000366
227.3107	-0.000204
227.9292	0.000303
228.5478	-0.000415
229.1666	0.000239
229.7855	0.000514
230.4045	-0.000711
231.0236	-0.000732
231.6429	-0.000331
232.2623	-0.000879
232.8818	-0.000267
233.5015	0.000176
234.1213	0.000387
234.7413	-0.000964
235.3613	-0.000162
235.9815	0.000598
236.6018	0.000408
237.2223	-0.000816
237.8429	0.001843
238.4636	0.001949
239.0845	0.000830
239.7055	0.001316
240.3266	0.000049
240.9478	0.000556
241.5692	-0.000183
242.1907	0.000556
242.8124	-0.001808
243.4341	-0.000204
244.0560	0.000598
244.6781	0.001970
245.3002	-0.001766
245.9225	0.000176
246.5449	-0.000964
247.1675	0.000640
247.7902	0.001843
248.4130	0.000682
249.0359	0.000408
249.6590	0.000915
250.2822	0.001083
250.9056	0.001316
251.5290	0.001189
252.1526	-0.000816
252.7763	0.000704
253.4002	0.001632
254.0242	0.000134
254.6483	0.000408
255.2725	0.001358
255.8969	0.001041
256.5214	0.000851
257.1460	-0.000225
257.7708	0.000640
258.3957	-0.000120
259.0207	0.000049
259.6459	0.000851
260.2711	0.000134
260.8965	0.000851
261.5221	-0.000183
262.1477	0.000134
262.7735	-0.000943
263.3995	0.001484
264.0255	0.000070
264.6517	0.001273
265.2780	-0.000246
265.9044	0.000957
266.5310	-0.000394
267.1577	0.001674
267.7845	0.000725
268.4114	0.000577
269.0385	0.000113
269.6657	-0.000014
270.2931	0.000809
270.9205	0.000091
271.5481	0.000345
272.1758	0.001020
272.8037	-0.000605
273.4316	0.000872
274.0597	-0.000816
274.6880	0.000471
275.3163	0.001210
275.9448	0.000514
276.5734	-0.000077
277.2022	0.000851
277.8310	-0.000098
278.4600	0.000197
279.0891	0.001083
279.7184	0.000028
280.3477	0.001506
280.9772	0.000492
281.6069	0.000915
282.2366	0.001780
282.8665	-0.000267
283.4965	-0.000120
284.1266	0.001316
284.7569	0.000577
285.3873	0.000619
286.0178	-0.000225
286.6484	-0.000267
287.2792	0.000598
287.9101	0.000936
288.5411	-0.000056
289.1723	0.000957
289.8035	0.000408
290.4349	0.000176
291.0665	0.000514
291.6981	-0.000077
292.3299	0.000113
292.9618	0.000957
293.5938	0.000704
294.2260	-0.000521
294.8582	0.001780
295.4906	-0.001154
296.1232	0.001083
296.7558	0.000134
297.3886	0.000260
298.0215	0.001273
298.6545	-0.000457
299.2877	0.000725
299.9210	-0.000204
300.5544	0.000134
301.1879	-0.000500
301.8215	0.000450
302.4553	0.001083
303.0892	-0.000014
303.7233	-0.000774
304.3574	-0.001069
304.9917	0.000725
305.6261	0.001527
306.2606	0.000113
306.8953	0.001738
307.5301	0.001885
308.1650	0.000514
308.8000	0.000809
309.4351	0.001273
310.0704	-0.000310
310.7058	0.001020
311.3413	0.000830
311.9770	-0.000711
312.6127	0.000851
313.2486	0.000260
313.8846	0.000682
314.5208	0.001527
315.1570	0.002202
315.7934	0.002118
316.4299	0.001484
317.0666	0.000725
317.7033	0.001020
318.3402	0.001780
318.9772	0.002286
319.6143	0.001843
320.2516	0.002244
320.8890	0.000893
321.5265	0.001780
322.1641	0.001780
322.8018	0.001590
323.4397	0.001717
324.0777	0.003321
324.7158	0.002793
325.3540	0.001484
325.9924	0.001864
326.6308	0.003067
327.2694	0.003173
327.9082	0.001885
328.5470	0.002118
329.1860	0.002054
329.8251	0.003131
330.4643	0.001611
331.1036	0.001463
331.7431	0.003342
332.3826	0.003173
333.0223	0.002751
333.6622	0.002666
334.3021	0.002730
334.9422	0.004207
335.5823	0.005832
336.2227	0.003236
336.8631	0.004460
337.5036	0.004756
338.1443	0.005262
338.7851	0.006465
339.4260	0.004798
340.0670	0.005136
340.7082	0.007077
341.3495	0.006487
341.9909	0.003912
342.6324	0.005030
343.2740	0.006782
343.9158	0.006423
344.5577	0.006402
345.1997	0.007289
345.8418	0.007289
346.4840	0.005094
347.1264	0.005874
347.7689	0.008893
348.4115	0.008449
349.0542	0.007120
349.6971	0.009040
350.3400	0.007542
350.9831	0.009019
351.6263	0.008893
352.2696	0.007415
352.9131	0.009610
353.5566	0.009547
354.2003	0.007753
354.8441	0.009272
355.4881	0.009842
356.1321	0.009758
356.7763	0.008850
357.4206	0.009695
358.0650	0.011573
358.7095	0.010877
359.3541	0.010243
359.9989	0.009505
360.6438	0.010750
361.2888	0.008428
361.9339	0.009863
362.5791	0.009526
363.2245	0.011066
363.8699	0.011974
364.5155	0.009589
365.1612	0.010518
365.8071	0.011742
366.4530	0.011573
367.0991	0.011974
367.7453	0.012143
368.3916	0.012080
369.0380	0.012818
369.6845	0.012966
370.3312	0.015203
370.9780	0.011341
371.6249	0.014443
372.2719	0.012755
372.9190	0.013029
373.5663	0.014275
374.2136	0.015942
374.8611	0.016849
375.5087	0.018137
376.1564	0.017841
376.8043	0.017630
377.4522	0.018538
378.1003	0.019445
378.7485	0.018855
379.3968	0.020522
380.0452	0.020142
380.6938	0.019530
381.3424	0.019741
381.9912	0.021113
382.6401	0.022020
383.2891	0.021809
383.9382	0.024384
384.5875	0.022210
385.2368	0.023498
385.8863	0.023076
386.5359	0.023434
387.1856	0.024405
387.8355	0.026009
388.4854	0.026769
389.1355	0.025672
389.7856	0.026326
390.4359	0.025250
391.0863	0.026854
391.7369	0.028310
392.3875	0.031412
393.0383	0.031244
393.6891	0.030315
394.3401	0.031159
394.9912	0.031434
395.6425	0.032003
396.2938	0.030632
396.9453	0.031286
397.5968	0.037934
398.2485	0.036837
398.9003	0.037385
399.5522	0.033481
400.2043	0.033776
400.8564	0.033903
401.5087	0.036161
402.1610	0.033439
402.8135	0.034409
403.4661	0.035465
404.1189	0.036203
404.7717	0.036457
405.4246	0.039179
406.0777	0.037892
406.7309	0.037259
407.3842	0.034642
408.0376	0.034874
408.6911	0.035634
409.3448	0.035613
409.9985	0.036963
410.6524	0.035866
411.3064	0.034853
411.9605	0.032827
412.6147	0.037090
413.2690	0.036942
413.9234	0.038103
414.5780	0.036035
415.2326	0.036014
415.8874	0.035401
416.5423	0.036921
417.1973	0.039707
417.8524	0.036520
418.5077	0.039348
419.1630	0.036879
419.8185	0.040192
420.4741	0.037850
421.1298	0.043506
421.7856	0.044604
422.4415	0.045722
423.0975	0.046018
423.7536	0.046630
424.4099	0.042029
425.0663	0.040952
425.7228	0.043675
426.3793	0.037195
427.0361	0.039264
427.6929	0.043654
428.3498	0.040678
429.0068	0.041881
429.6640	0.043823
430.3213	0.048761
430.9787	0.047643
431.6362	0.044688
432.2938	0.040340
432.9515	0.042556
433.6093	0.041206
434.2673	0.049416
434.9253	0.041184
435.5835	0.044435
436.2418	0.044224
436.9001	0.046165
437.5586	0.044772
438.2173	0.044941
438.8760	0.047263
439.5348	0.046292
440.1938	0.046060
440.8528	0.042240
441.5120	0.052476
442.1713	0.056486
442.8307	0.053953
443.4902	0.055747
444.1498	0.056803
444.8095	0.053595
445.4694	0.053447
446.1293	0.053806
446.7894	0.054967
447.4496	0.055389
448.1098	0.054924
448.7702	0.053827
449.4307	0.050640
450.0914	0.056043
450.7521	0.052772
451.4129	0.051083
452.0739	0.048909
452.7349	0.048529
453.3961	0.047263
454.0574	0.048930
454.7188	0.046693
455.3803	0.049036
456.0419	0.049542
456.7036	0.048192
457.3654	0.051843
458.0274	0.051484
458.6894	0.052181
459.3516	0.054017
460.0138	0.052159
460.6762	0.052075
461.3387	0.051885
462.0013	0.051927
462.6640	0.047305
463.3268	0.048360
463.9897	0.051505
464.6528	0.052940
465.3159	0.059335
465.9792	0.061552
466.6425	0.053932
467.3060	0.051906
467.9696	0.048382
468.6333	0.049690
469.2970	0.046102
469.9610	0.045427
470.6250	0.043105
471.2891	0.041628
471.9533	0.045574
472.6177	0.041860
473.2821	0.048065
473.9467	0.047685
474.6113	0.047558
475.2761	0.049669
475.9410	0.049141
476.6060	0.049922
477.2711	0.047833
477.9363	0.049184
478.6016	0.051822
479.2670	0.050070
479.9325	0.050049
480.5982	0.055325
481.2639	0.050534
481.9298	0.054798
482.5957	0.054186
483.2618	0.052307
483.9280	0.055769
484.5943	0.057520
485.2606	0.061995
485.9271	0.138714
486.5937	0.171428
487.2605	0.110601
487.9273	0.069361
488.5942	0.056275
489.2612	0.054017
489.9284	0.052286
490.5956	0.051400
491.2630	0.054291
491.9304	0.052117
492.5980	0.050724
493.2657	0.050640
493.9334	0.053742
494.6013	0.055579
495.2693	0.053764
495.9374	0.049964
496.6056	0.058196
497.2739	0.058238
497.9423	0.050323
498.6109	0.051442
499.2795	0.053721
499.9482	0.056233
500.6171	0.052919
501.2860	0.053975
501.9551	0.056043
502.6242	0.055579
503.2935	0.054692
503.9628	0.056676
504.6323	0.052349
505.3019	0.055030
505.9716	0.052476
506.6414	0.055874
507.3113	0.050281
507.9813	0.047263
508.6514	0.052096
509.3216	0.049880
509.9919	0.049986
510.6623	0.048213
511.3329	0.048614
512.0035	0.050112
512.6742	0.045553
513.3451	0.048951
514.0160	0.046271
514.6871	0.047284
515.3582	0.043021
516.0295	0.040910
516.7008	0.045638
517.3723	0.045659
518.0439	0.040868
518.7155	0.042345
519.3873	0.041311
520.0592	0.041459
520.7312	0.037238
521.4033	0.039981
522.0755	0.036794
522.7478	0.038230
523.4202	0.038103
524.0927	0.039074
524.7653	0.039095
525.4380	0.038377
526.1108	0.038398
526.7837	0.038356
527.4568	0.040340
528.1299	0.036182
528.8031	0.039580
529.4765	0.041564
530.1499	0.040361
530.8234	0.037618
531.4971	0.040235
532.1708	0.041184
532.8447	0.038652
533.5186	0.045511
534.1927	0.045659
534.8668	0.046419
535.5411	0.046630
536.2155	0.046862
536.8899	0.040889
537.5645	0.040382
538.2392	0.045532
538.9139	0.045638
539.5888	0.049563
540.2638	0.046503
540.9389	0.047200
541.6140	0.048487
542.2893	0.049395
542.9647	0.047854
543.6402	0.048382
544.3158	0.051737
544.9915	0.054017
545.6673	0.050893
546.3432	0.048466
547.0192	0.045912
547.6953	0.050260
548.3715	0.056803
549.0478	0.057204
549.7242	0.048445
550.4007	0.052286
551.0773	0.047200
551.7540	0.042831
552.4308	0.053173
553.1077	0.051210
553.7847	0.052856
554.4618	0.050302
555.1390	0.051210
555.8163	0.053975
556.4937	0.056697
557.1712	0.051020
557.8488	0.050978
558.5266	0.050682
559.2044	0.046820
559.8823	0.046060
560.5603	0.055135
561.2384	0.060264
561.9166	0.060792
562.5949	0.058048
563.2733	0.055853
563.9519	0.058702
564.6305	0.060771
565.3092	0.062016
565.9880	0.062248
566.6669	0.064971
567.3459	0.071070
568.0250	0.082847
568.7043	0.091543
569.3836	0.108639
570.0630	0.138778
570.7425	0.146608
571.4221	0.169803
572.1018	0.186561
572.7816	0.176599
573.4615	0.170373
574.1415	0.205873
574.8216	0.226916
575.5018	0.232720
576.1821	0.206169
576.8626	0.218642
577.5431	0.237447
578.2237	0.313998
578.9044	0.266763
579.5851	0.236983
580.2660	0.250913
580.9470	0.245088
581.6281	0.352622
582.3093	0.381157
582.9906	0.306548
583.6720	0.241141
584.3535	0.223285
585.0351	0.242492
585.7167	0.281854
586.3985	0.252876
587.0804	0.233311
587.7624	0.265729
588.4445	0.236012
589.1266	0.212775
589.8089	0.186371
590.4913	0.176810
591.1737	0.156422
591.8563	0.147241
592.5389	0.147178
593.2217	0.220457
593.9046	0.218515
594.5875	0.189411
595.2705	0.211065
595.9537	0.202707
596.6369	0.166806
597.3203	0.158512
598.0037	0.165878
598.6872	0.153953
599.3709	0.196608
600.0546	0.190698
600.7384	0.197410
601.4223	0.202348
602.1064	0.180947
602.7905	0.179892
603.4747	0.198486
604.1590	0.193948
604.8434	0.174826
605.5279	0.167925
606.2125	0.188165
606.8972	0.165983
607.5819	0.167038
608.2668	0.162311
608.9518	0.153911
609.6369	0.142260
610.3220	0.155071
611.0073	0.146144
611.6927	0.142577
612.3781	0.140382
613.0637	0.134156
613.7493	0.136245
614.4351	0.133142
615.1209	0.132784
615.8068	0.138334
616.4929	0.123793
617.1790	0.115224
617.8652	0.115203
618.5515	0.111804
619.2379	0.096946
619.9244	0.094920
620.6110	0.101800
621.2977	0.083649
621.9845	0.080019
622.6714	0.089348
623.3584	0.091522
624.0454	0.093105
624.7326	0.094181
625.4199	0.090065
626.1072	0.083079
626.7947	0.073519
627.4822	0.075735
628.1698	0.070733
628.8576	0.061636
629.5454	0.062079
630.2333	0.063367
630.9213	0.059905
631.6094	0.051970
632.2976	0.054080
632.9859	0.050492
633.6743	0.045005
634.3628	0.047812
635.0514	0.042957
635.7400	0.041311
636.4288	0.047706
637.1177	0.048424
637.8066	0.043042
638.4957	0.045891
639.1848	0.043591
639.8740	0.040888
640.5633	0.037175
641.2528	0.037571
641.9423	0.034412
642.6319	0.031332
643.3216	0.030469
644.0113	0.030399
644.7012	0.029822
645.3912	0.028199
646.0812	0.028107
646.7714	0.026204
647.4616	0.023397
648.1520	0.028987
648.8424	0.030666
649.5329	0.034778
650.2236	0.032321
650.9143	0.029941
651.6051	0.028683
652.2960	0.031183
652.9870	0.033587
653.6780	0.032058
654.3692	0.034224
655.0605	0.039830
655.7518	0.528055
656.4433	1.000000
657.1348	1.000000
657.8264	0.617027
658.5181	0.453390
659.2099	0.377569
659.9018	0.149386
660.5938	0.038393
661.2859	0.025199
661.9781	0.023419
662.6704	0.022085
663.3627	0.021369
664.0552	0.021940
664.7477	0.023913
665.4403	0.025320
666.1330	0.026356
666.8259	0.024427
667.5188	0.020671
668.2117	0.021069
668.9048	0.021493
669.5980	0.020332
670.2913	0.021598
670.9846	0.022379
671.6781	0.027297
672.3716	0.034473
673.0652	0.035486
673.7589	0.032995
674.4527	0.028774
675.1466	0.025819
675.8406	0.027234
676.5347	0.026748
677.2288	0.024975
677.9231	0.029281
678.6174	0.031223
679.3119	0.032383
680.0064	0.034431
680.7010	0.035929
681.3957	0.034853
682.0905	0.036478
682.7854	0.031244
683.4803	0.030822
684.1754	0.033861
684.8705	0.036900
685.5658	0.046208
686.2611	0.044815
686.9565	0.043823
687.6520	0.044646
688.3476	0.041628
689.0433	0.038863
689.7390	0.037385
690.4349	0.035064
691.1308	0.034409
691.8269	0.038905
692.5230	0.039264
693.2192	0.039032
693.9155	0.038293
694.6119	0.034304
695.3083	0.036520
696.0049	0.030505
696.7016	0.032995
697.3983	0.040024
698.0951	0.038377
698.7920	0.038145
699.4890	0.037596
700.1861	0.034241
700.8833	0.033671
701.5806	0.029977
702.2779	0.028964
702.9753	0.031370
703.6729	0.031096
704.3705	0.027677
705.0682	0.025798
705.7660	0.024131
706.4638	0.026854
707.1618	0.036921
707.8599	0.038947
708.5580	0.038757
709.2562	0.034557
709.9545	0.035697
710.6529	0.034705
711.3514	0.032552
712.0500	0.033270
712.7486	0.027846
713.4474	0.029830
714.1462	0.033312
714.8451	0.033882
715.5441	0.036056
716.2432	0.035528
716.9424	0.028183
717.6416	0.027782
718.3410	0.029239
719.0404	0.029808
719.7399	0.030273
720.4395	0.029154
721.1392	0.030104
721.8390	0.031434
722.5388	0.029091
723.2388	0.029407
723.9388	0.031750
724.6389	0.026664
725.3391	0.029977
726.0394	0.035697
726.7398	0.035064
727.4403	0.034346
728.1408	0.034663
728.8414	0.036372
729.5421	0.033333
730.2429	0.037322
730.9438	0.040425
731.6448	0.042746
732.3458	0.042788
733.0470	0.042936
733.7482	0.042430
734.4495	0.051484
735.1509	0.049986
735.8524	0.048339
736.5539	0.048213
737.2556	0.047411
737.9573	0.047769
738.6591	0.041818
739.3610	0.044667
740.0630	0.047896
740.7651	0.041269
741.4672	0.036921
742.1695	0.033017
742.8718	0.035254
743.5742	0.033924
744.2767	0.030674
744.9792	0.030589
745.6819	0.029239
746.3846	0.029977
747.0874	0.029175
747.7903	0.032426
748.4933	0.029935
749.1964	0.029450
749.8995	0.034515
750.6028	0.038968
751.3061	0.037955
752.0095	0.040847
752.7130	0.039179
753.4166	0.038610
754.1202	0.045342
754.8239	0.040741
755.5278	0.044160
756.2317	0.045849
756.9356	0.051083
757.6397	0.056972
758.3438	0.061404
759.0481	0.054755
759.7524	0.060116
760.4568	0.063156
761.1613	0.063810
761.8658	0.054333
762.5705	0.049901
763.2752	0.048002
763.9800	0.053004
764.6849	0.056402
765.3898	0.059124
766.0949	0.055980
766.8000	0.042915
767.5052	0.040382
768.2105	0.037913
768.9159	0.049057
769.6214	0.046756
770.3269	0.044920
771.0325	0.044920
771.7382	0.048044
772.4440	0.041459
773.1499	0.040657
773.8558	0.038335
774.5618	0.035317
775.2679	0.030906
775.9741	0.029703
776.6804	0.027044
777.3868	0.026579
778.0932	0.025967
778.7997	0.029597
779.5063	0.032911
780.2130	0.030653
780.9197	0.029302
781.6265	0.034642
782.3335	0.035233
783.0405	0.034621
783.7475	0.034979
784.4547	0.033629
785.1619	0.029070
785.8692	0.031412
786.5766	0.031708
787.2841	0.027402
787.9917	0.031602
788.6993	0.030800
789.4070	0.031180
790.1148	0.026769
790.8227	0.025672
791.5306	0.024258
792.2387	0.022590
792.9468	0.022738
793.6550	0.022084
794.3632	0.030568
795.0716	0.031750
795.7800	0.031138
796.4885	0.026030
797.1971	0.023899
797.9058	0.023878
798.6145	0.022316
799.3233	0.024194
800.0322	0.022485
800.7412	0.020036
801.4503	0.020501
802.1594	0.019825
802.8686	0.018327
803.5779	0.018432
804.2873	0.016976
804.9968	0.018348
805.7063	0.018137
806.4159	0.022780
807.1256	0.025819
807.8354	0.023624
808.5452	0.023730
809.2551	0.021071
809.9651	0.018137
810.6752	0.018897
811.3853	0.018432
812.0956	0.017314
812.8059	0.015900
813.5163	0.014950
814.2267	0.018981
814.9373	0.016997
815.6479	0.015309
816.3586	0.013029
817.0694	0.013810
817.7802	0.015604
818.4912	0.013810
819.2022	0.013916
819.9133	0.012270
820.6244	0.013325
821.3357	0.015646
822.0470	0.014486
822.7584	0.014697
823.4698	0.012354
824.1814	0.010370
824.8930	0.011742
825.6047	0.011235
826.3165	0.014633
827.0283	0.011953
827.7402	0.013008
828.4522	0.013895
829.1643	0.012080
829.8765	0.012396
830.5887	0.013198
831.3010	0.009821
832.0134	0.007183
832.7259	0.008091
833.4384	0.009125
834.1510	0.009315
834.8637	0.011868
835.5765	0.011066
836.2893	0.010581
837.0022	0.007858
837.7152	0.006909
838.4283	0.005684
839.1414	0.004946
839.8546	0.006212
840.5679	0.005938
841.2813	0.007162
841.9947	0.008808
842.7082	0.005241
843.4218	0.005410
844.1355	0.005621
844.8492	0.006107
845.5631	0.003701
846.2770	0.005241
846.9909	0.003173
847.7050	0.006571
848.4191	0.005389
849.1333	0.004882
849.8475	0.004671
850.5619	0.003722
851.2763	0.005452
851.9908	0.005938
852.7053	0.006972
853.4200	0.012270
854.1347	0.012523
854.8495	0.015752
855.5643	0.013451
856.2792	0.013810
856.9942	0.010750
857.7093	0.012058
858.4245	0.010497
859.1397	0.010222
859.8550	0.008048
860.5704	0.006212
861.2858	0.008048
862.0013	0.005347
862.7169	0.005009
863.4326	0.007352
864.1483	0.007901
864.8642	0.006001
865.5800	0.005115
866.2960	0.005094
867.0120	0.005938
867.7281	0.005220
868.4443	0.005051
869.1606	0.005495
869.8769	0.004292
870.5933	0.005959
871.3097	0.005917
872.0263	0.004925
872.7429	0.004629
873.4596	0.005980
874.1763	0.005030
874.8932	0.004671
875.6101	0.005094
876.3270	0.006001
877.0441	0.006064
877.7612	0.004292
878.4784	0.007521
879.1957	0.005347
879.9130	0.008238
880.6304	0.007879
881.3479	0.008618
882.0654	0.004946
882.7831	0.007521
883.5007	0.006529
884.2185	0.007099
884.9363	0.005072
885.6542	0.006972
886.3722	0.006487
887.0903	0.003869
887.8084	0.004756
888.5266	0.005326
889.2448	0.004735
889.9632	0.006064
890.6816	0.004904
891.4001	0.004777
892.1186	0.005727
892.8372	0.004988
893.5559	0.005389
894.2747	0.004228
894.9935	0.003743
895.7124	0.004840
896.4314	0.005178
897.1504	0.005368
897.8695	0.004228
898.5887	0.004566
899.3079	0.004671
900.0272	0.004207
900.7466	0.004080
901.4661	0.003553
902.1856	0.004207
902.9052	0.004819
903.6249	0.003110
904.3446	0.004545
905.0644	0.005896
905.7843	0.005241
906.5043	0.004819
907.2243	0.003489
907.9444	0.003616
908.6645	0.005157
909.3847	0.003363
910.1050	0.004334
910.8254	0.003827
911.5458	0.003912
912.2663	0.004629
912.9869	0.004249
913.7075	0.003616
914.4283	0.004165
915.1490	0.002139
915.8699	0.004102
916.5908	0.004228
917.3118	0.003257
918.0328	0.004207
918.7539	0.002413
919.4751	0.003827
920.1964	0.005094
920.9177	0.004059
921.6391	0.004608
922.3606	0.003300
923.0821	0.005389
923.8037	0.001506
924.5254	0.002413
925.2471	0.001020
925.9689	0.004313
926.6908	0.001611
927.4127	0.003511
928.1347	0.002983
928.8568	0.002413
929.5789	0.003447
930.3011	0.002350
931.0234	0.001463
931.7457	0.001590
932.4681	0.001674
933.1906	0.001717
933.9131	0.001590
934.6358	0.002455
935.3584	0.003067
936.0812	0.000556
936.8040	0.001822
937.5269	0.002223
938.2498	0.002118
938.9728	0.001400
939.6959	0.001822
940.4190	0.001358
941.1422	0.001273
941.8655	0.002329
942.5889	0.001400
943.3123	0.001484
944.0357	0.001041
944.7593	0.000746
945.4829	0.001231
946.2066	0.000619
946.9303	0.000978
947.6541	0.001885
948.3780	0.001759
949.1019	0.000915
949.8259	0.000830
950.5500	0.001062
951.2741	0.001970
951.9983	0.001147
952.7226	0.001611
953.4469	0.001527
954.1713	0.001864
954.8958	0.000345
955.6203	0.000746
956.3449	0.002244
957.0696	0.001020
957.7943	0.001949
958.5191	0.001442
959.2439	-0.001323
959.9688	-0.000183
960.6938	0.000049
961.4189	-0.000098
962.1440	0.000134
962.8692	0.001421
963.5944	0.000324
964.3197	0.001041
965.0451	0.001506
965.7705	0.000345
966.4960	0.001126
967.2216	0.001210
967.9472	0.000788
968.6729	0.001020
969.3987	-0.000141
970.1245	0.000007
970.8504	0.000324
971.5763	0.001358
972.3023	0.000640
973.0284	0.000661
973.7545	-0.000626
974.4807	0.001695
975.2070	0.002033
975.9333	0.000028
976.6597	-0.000225
977.3862	0.000514
978.1127	-0.000858
978.8393	0.000640
979.5659	0.000492
980.2926	0.000113
981.0194	0.001548
981.7462	0.000704
982.4731	0.000978
983.2001	0.000999
983.9271	-0.000077
984.6542	-0.000373
985.3814	0.001126
986.1086	0.000915
986.8358	0.001168
987.5632	-0.000521
988.2906	0.001885
989.0180	0.000535
989.7456	-0.000077
990.4732	0.000134
991.2008	-0.000753
991.9285	0.000514
992.6563	-0.000584
993.3841	0.000556
994.1120	0.000830
994.8400	0.002054
995.5680	-0.001238
996.2961	-0.000310
997.0242	0.000324
997.7524	-0.000647
998.4807	0.000978
999.2090	-0.000098
999.9374	0.000366
1000.67	0.000408
1001.39	0.000134
1002.12	-0.000077
1002.85	-0.000985
1003.58	0.000176
1004.31	0.001105
1005.04	0.001126
1005.77	0.000028
1006.5	-0.000141
1007.22	-0.000542
1007.95	0.000619
1008.68	-0.000014
1009.41	0.000176
1010.14	0.001105
1010.87	0.000640
1011.6	-0.000183
1012.33	0.000197
1013.06	-0.000732
1013.79	-0.000732
1014.52	0.000619
1015.25	-0.001449
1015.98	-0.000584
1016.71	-0.000056
1017.44	0.000535
1018.17	-0.000098
1018.9	0.000366
1019.63	0.001105
1020.36	-0.000056
1021.09	-0.000141
1021.82	0.000450
1022.55	-0.000753
1023.03	-0.001027