File: Auto_Polymerization/Spectra/MRG-061-F-3_pure_compounds_spectra_test/pure_DMSO_spectrum_2025-06-19_14-36-58.txt
# Wavelength (nm)	Intensity (a.u.)
197.7802	0.000665
198.3922	-0.000011
199.0044	0.000158
199.6168	-0.000327
200.2292	-0.000686
200.8418	-0.000011
201.4546	0.001973
202.0674	0.000032
202.6805	0.001150
203.2936	0.000158
203.9069	-0.000095
204.5203	0.000580
205.1338	0.001255
205.7475	-0.000011
206.3614	-0.000876
206.9753	0.000264
207.5894	-0.000411
208.2036	0.001340
208.8180	-0.000264
209.4325	0.000074
210.0471	0.000369
210.6618	0.001319
211.2767	0.001150
211.8918	0.000454
212.5069	0.001720
213.1222	0.001361
213.7376	0.001677
214.3532	-0.000601
214.9689	0.000770
215.5847	0.001192
216.2007	0.000348
216.8168	-0.000032
217.4330	-0.000095
218.0494	-0.000580
218.6659	0.001192
219.2825	0.001846
219.8992	0.001234
220.5161	-0.000770
221.1332	0.001129
221.7503	0.002416
222.3676	0.000306
222.9850	-0.000200
223.6026	0.000306
224.2203	-0.000411
224.8381	0.000327
225.4561	-0.000179
226.0742	0.000369
226.6924	-0.000390
227.3107	0.001741
227.9292	0.001066
228.5478	0.000622
229.1666	-0.000306
229.7855	-0.000411
230.4045	-0.000580
231.0236	0.001023
231.6429	0.000137
232.2623	0.001361
232.8818	0.000644
233.5015	-0.000496
234.1213	-0.000390
234.7413	0.000390
235.3613	0.001720
235.9815	0.000179
236.6018	0.000032
237.2223	-0.000137
237.8429	-0.001044
238.4636	0.001298
239.0845	0.000137
239.7055	0.000728
240.3266	-0.000897
240.9478	0.001234
241.5692	0.000306
242.1907	0.000369
242.8124	-0.000411
243.4341	0.000812
244.0560	0.000644
244.6781	0.000833
245.3002	-0.000074
245.9225	0.000222
246.5449	0.000833
247.1675	0.000665
247.7902	0.000327
248.4130	0.000095
249.0359	0.001171
249.6590	0.001551
250.2822	0.001087
250.9056	-0.001066
251.5290	0.000897
252.1526	0.001424
252.7763	0.000454
253.4002	-0.000306
254.0242	0.000496
254.6483	0.001572
255.2725	0.000222
255.8969	0.000306
256.5214	0.000390
257.1460	-0.000011
257.7708	-0.001213
258.3957	0.001087
259.0207	0.000897
259.6459	0.002416
260.2711	-0.000116
260.8965	0.002163
261.5221	0.001762
262.1477	-0.000074
262.7735	0.000411
263.3995	0.001382
264.0255	-0.000264
264.6517	0.001023
265.2780	0.001002
265.9044	0.000222
266.5310	-0.000095
267.1577	0.000897
267.7845	-0.000116
268.4114	0.001044
269.0385	-0.000011
269.6657	0.000411
270.2931	0.000011
270.9205	-0.000011
271.5481	0.000264
272.1758	0.000876
272.8037	0.001952
273.4316	0.001213
274.0597	0.001382
274.6880	0.001129
275.3163	0.000833
275.9448	0.000496
276.5734	0.000179
277.2022	0.000306
277.8310	0.000559
278.4600	0.000517
279.0891	0.000179
279.7184	0.001994
280.3477	-0.000137
280.9772	0.000243
281.6069	-0.001087
282.2366	0.000348
282.8665	-0.000200
283.4965	0.001319
284.1266	0.000433
284.7569	-0.000053
285.3873	-0.000285
286.0178	0.002500
286.6484	0.001340
287.2792	0.001656
287.9101	0.000454
288.5411	0.002859
289.1723	0.000158
289.8035	-0.000200
290.4349	-0.000538
291.0665	0.001825
291.6981	-0.000179
292.3299	0.000390
292.9618	-0.000074
293.5938	0.000897
294.2260	0.000538
294.8582	0.000053
295.4906	-0.000222
296.1232	0.001720
296.7558	0.001466
297.3886	0.000243
298.0215	0.001952
298.6545	0.001361
299.2877	-0.000095
299.9210	0.000580
300.5544	0.000222
301.1879	0.001403
301.8215	0.001614
302.4553	0.001762
303.0892	-0.000644
303.7233	0.000243
304.3574	0.000559
304.9917	0.000644
305.6261	-0.000264
306.2606	0.000665
306.8953	-0.000855
307.5301	0.001720
308.1650	-0.000665
308.8000	-0.000158
309.4351	0.000011
310.0704	-0.000053
310.7058	0.001002
311.3413	0.002521
311.9770	0.001530
312.6127	0.000981
313.2486	0.002205
313.8846	0.000433
314.5208	0.001931
315.1570	0.002057
315.7934	0.001023
316.4299	0.002838
317.0666	0.001973
317.7033	0.001783
318.3402	0.000222
318.9772	0.004104
319.6143	0.001720
320.2516	0.000960
320.8890	0.000960
321.5265	0.002416
322.1641	0.000981
322.8018	0.000939
323.4397	0.002015
324.0777	0.003956
324.7158	0.002015
325.3540	0.002732
325.9924	0.001466
326.6308	0.003049
327.2694	0.002120
327.9082	0.001804
328.5470	0.004631
329.1860	0.002669
329.8251	0.003703
330.4643	0.005306
331.1036	0.004040
331.7431	0.004146
332.3826	0.002521
333.0223	0.003429
333.6622	0.004125
334.3021	0.004251
334.9422	0.003787
335.5823	0.004568
336.2227	0.004399
336.8631	0.004441
337.5036	0.004230
338.1443	0.005517
338.7851	0.004019
339.4260	0.005665
340.0670	0.006235
340.7082	0.004695
341.3495	0.005918
341.9909	0.007269
342.6324	0.006593
343.2740	0.006572
343.9158	0.006003
344.5577	0.007100
345.1997	0.006720
345.8418	0.007944
346.4840	0.006699
347.1264	0.008049
347.7689	0.007670
348.4115	0.006741
349.0542	0.008345
349.6971	0.007648
350.3400	0.007248
350.9831	0.008851
351.6263	0.008513
352.2696	0.007712
352.9131	0.007480
353.5566	0.010813
354.2003	0.007986
354.8441	0.008957
355.4881	0.010265
356.1321	0.009864
356.7763	0.009611
357.4206	0.009484
358.0650	0.009252
358.7095	0.009526
359.3541	0.010159
359.9989	0.007880
360.6438	0.008767
361.2888	0.009906
361.9339	0.009801
362.5791	0.012797
363.2245	0.010919
363.8699	0.010940
364.5155	0.010222
365.1612	0.011573
365.8071	0.010138
366.4530	0.012037
367.0991	0.011362
367.7453	0.013303
368.3916	0.012586
369.0380	0.014991
369.6845	0.013767
370.3312	0.011974
370.9780	0.012628
371.6249	0.015244
372.2719	0.012206
372.9190	0.011889
373.5663	0.012522
374.2136	0.013746
374.8611	0.013978
375.5087	0.015750
376.1564	0.015814
376.8043	0.016721
377.4522	0.017544
378.1003	0.018325
378.7485	0.018894
379.3968	0.021004
380.0452	0.018346
380.6938	0.019569
381.3424	0.020160
381.9912	0.018261
382.6401	0.020540
383.2891	0.021532
383.9382	0.020814
384.5875	0.022101
385.2368	0.022165
385.8863	0.020941
386.5359	0.023620
387.1856	0.021890
387.8355	0.024485
388.4854	0.025561
389.1355	0.026448
389.7856	0.025013
390.4359	0.026131
391.0863	0.026026
391.7369	0.026427
392.3875	0.028853
393.0383	0.030119
393.6891	0.029676
394.3401	0.028473
394.9912	0.027925
395.6425	0.029549
396.2938	0.030013
396.9453	0.032714
397.5968	0.031132
398.2485	0.035288
398.9003	0.035647
399.5522	0.033727
400.2043	0.033853
400.8564	0.034022
401.5087	0.033600
402.1610	0.033706
402.8135	0.032883
403.4661	0.032587
404.1189	0.033896
404.7717	0.034486
405.4246	0.036470
406.0777	0.036723
406.7309	0.033621
407.3842	0.031322
408.0376	0.035246
408.6911	0.032630
409.3448	0.033706
409.9985	0.034571
410.6524	0.035183
411.3064	0.033875
411.9605	0.033199
412.6147	0.035963
413.2690	0.035605
413.9234	0.038137
414.5780	0.036027
415.2326	0.034887
415.8874	0.037187
416.5423	0.034740
417.1973	0.034170
417.8524	0.036575
418.5077	0.036491
419.1630	0.035246
419.8185	0.036681
420.4741	0.038833
421.1298	0.042314
421.7856	0.044551
422.4415	0.045521
423.0975	0.041618
423.7536	0.042019
424.4099	0.040858
425.0663	0.041808
425.7228	0.039381
426.3793	0.036828
427.0361	0.039276
427.6929	0.042673
428.3498	0.040922
429.0068	0.038812
429.6640	0.044023
430.3213	0.047990
430.9787	0.047948
431.6362	0.041555
432.2938	0.039276
432.9515	0.040626
433.6093	0.045205
434.2673	0.048159
434.9253	0.043432
435.5835	0.041301
436.2418	0.044255
436.9001	0.044572
437.5586	0.042082
438.2173	0.042251
438.8760	0.043728
439.5348	0.043770
440.1938	0.044867
440.8528	0.045795
441.5120	0.056999
442.1713	0.053750
442.8307	0.051788
443.4902	0.052399
444.1498	0.052758
444.8095	0.052146
445.4694	0.053138
446.1293	0.051788
446.7894	0.054024
447.4496	0.050838
448.1098	0.049762
448.7702	0.050205
449.4307	0.049931
450.0914	0.050733
450.7521	0.052294
451.4129	0.048327
452.0739	0.049804
452.7349	0.045943
453.3961	0.046745
454.0574	0.046745
454.7188	0.044741
455.3803	0.047948
456.0419	0.047420
456.7036	0.044213
457.3654	0.048538
458.0274	0.050606
458.6894	0.052188
459.3516	0.049087
460.0138	0.049889
460.6762	0.047969
461.3387	0.049045
462.0013	0.047779
462.6640	0.045753
463.3268	0.048876
463.9897	0.050479
464.6528	0.052547
465.3159	0.055269
465.9792	0.058877
466.6425	0.051598
467.3060	0.047061
467.9696	0.047842
468.6333	0.048454
469.2970	0.045205
469.9610	0.040647
470.6250	0.041871
471.2891	0.042673
471.9533	0.039930
472.6177	0.043432
473.2821	0.047694
473.9467	0.047526
474.6113	0.045711
475.2761	0.049804
475.9410	0.047146
476.6060	0.047631
477.2711	0.042947
477.9363	0.050332
478.6016	0.047737
479.2670	0.048918
479.9325	0.047294
480.5982	0.054193
481.2639	0.050923
481.9298	0.052505
482.5957	0.052674
483.2618	0.050901
483.9280	0.051577
484.5943	0.058729
485.2606	0.060502
485.9271	0.190240
486.5937	0.133821
487.2605	0.099598
487.9273	0.061071
488.5942	0.052547
489.2612	0.051366
489.9284	0.054615
490.5956	0.050353
491.2630	0.052843
491.9304	0.052125
492.5980	0.052421
493.2657	0.051366
493.9334	0.052589
494.6013	0.053961
495.2693	0.052020
495.9374	0.051323
496.6056	0.058392
497.2739	0.054024
497.9423	0.050226
498.6109	0.048897
499.2795	0.052843
499.9482	0.054256
500.6171	0.051281
501.2860	0.056261
501.9551	0.052547
502.6242	0.055543
503.2935	0.053750
503.9628	0.053518
504.6323	0.050079
505.3019	0.052885
505.9716	0.050311
506.6414	0.052526
507.3113	0.046998
507.9813	0.049340
508.6514	0.047779
509.3216	0.047526
509.9919	0.048581
510.6623	0.046386
511.3329	0.045901
512.0035	0.048897
512.6742	0.043348
513.3451	0.046597
514.0160	0.043918
514.6871	0.043158
515.3582	0.042399
516.0295	0.043622
516.7008	0.043918
517.3723	0.041955
518.0439	0.041344
518.7155	0.038727
519.3873	0.043475
520.0592	0.040521
520.7312	0.037356
521.4033	0.040331
522.0755	0.037926
522.7478	0.036934
523.4202	0.034824
524.0927	0.038559
524.7653	0.035668
525.4380	0.038622
526.1108	0.035984
526.7837	0.037504
527.4568	0.037018
528.1299	0.037103
528.8031	0.041133
529.4765	0.040985
530.1499	0.038706
530.8234	0.039044
531.4971	0.037609
532.1708	0.036955
532.8447	0.039972
533.5186	0.042441
534.1927	0.045331
534.8668	0.045247
535.5411	0.044129
536.2155	0.041850
536.8899	0.038833
537.5645	0.042778
538.2392	0.044023
538.9139	0.045901
539.5888	0.046407
540.2638	0.044340
540.9389	0.044108
541.6140	0.045226
542.2893	0.048074
542.9647	0.048032
543.6402	0.049425
544.3158	0.050163
544.9915	0.050290
545.6673	0.048137
546.3432	0.047378
547.0192	0.046576
547.6953	0.049847
548.3715	0.057168
549.0478	0.054109
549.7242	0.050015
550.4007	0.044804
551.0773	0.045964
551.7540	0.046893
552.4308	0.053328
553.1077	0.051598
553.7847	0.054362
554.4618	0.051893
555.1390	0.049973
555.8163	0.051661
556.4937	0.056303
557.1712	0.048559
557.8488	0.049340
558.5266	0.046977
559.2044	0.046049
559.8823	0.048011
560.5603	0.054615
561.2384	0.059088
561.9166	0.060206
562.5949	0.056050
563.2733	0.057147
563.9519	0.057316
564.6305	0.063160
565.3092	0.062084
565.9880	0.062042
566.6669	0.061831
567.3459	0.073456
568.0250	0.079048
568.7043	0.091834
569.3836	0.107890
570.0630	0.138505
570.7425	0.141712
571.4221	0.168866
572.1018	0.186906
572.7816	0.163233
573.4615	0.183762
574.1415	0.206676
574.8216	0.223260
575.5018	0.225306
576.1821	0.207604
576.8626	0.226593
577.5431	0.243409
578.2237	0.297803
578.9044	0.248389
579.5851	0.242418
580.2660	0.250456
580.9470	0.242671
581.6281	0.379456
582.3093	0.360024
582.9906	0.272737
583.6720	0.224694
584.3535	0.222057
585.0351	0.264972
585.7167	0.268264
586.3985	0.231446
587.0804	0.239105
587.7624	0.252440
588.4445	0.227163
589.1266	0.192877
589.8089	0.181378
590.4913	0.164900
591.1737	0.145109
591.8563	0.143695
592.5389	0.166820
593.2217	0.225834
593.9046	0.209144
594.5875	0.182686
595.2705	0.216993
595.9537	0.188045
596.6369	0.158338
597.3203	0.160933
598.0037	0.157536
598.6872	0.171483
599.3709	0.199924
600.0546	0.194523
600.7384	0.192033
601.4223	0.189986
602.1064	0.180070
602.7905	0.182306
603.4747	0.199861
604.1590	0.187771
604.8434	0.161946
605.5279	0.172559
606.2125	0.178825
606.8972	0.159118
607.5819	0.167769
608.2668	0.152725
608.9518	0.150109
609.6369	0.136205
610.3220	0.157114
611.0073	0.143716
611.6927	0.139939
612.3781	0.136142
613.0637	0.135002
613.7493	0.130445
614.4351	0.134095
615.1209	0.127343
615.8068	0.136036
616.4929	0.116920
617.1790	0.111603
617.8652	0.115887
618.5515	0.102468
619.2379	0.094914
619.9244	0.095885
620.6110	0.096412
621.2977	0.077824
621.9845	0.081727
622.6714	0.088816
623.3584	0.092361
624.0454	0.089091
624.7326	0.088373
625.4199	0.082023
626.1072	0.077339
626.7947	0.072844
627.4822	0.070545
628.1698	0.066599
628.8576	0.057379
629.5454	0.063308
630.2333	0.062548
630.9213	0.057801
631.6094	0.053180
632.2976	0.051577
632.9859	0.045943
633.6743	0.046893
634.3628	0.043053
635.0514	0.042040
635.7400	0.042356
636.4288	0.046344
637.1177	0.045205
637.8066	0.042694
638.4957	0.045099
639.1848	0.040732
639.8740	0.038539
640.5633	0.035444
641.2528	0.034964
641.9423	0.032941
642.6319	0.028693
643.3216	0.030096
644.0113	0.029067
644.7012	0.027630
645.3912	0.026761
646.0812	0.026163
646.7714	0.023489
647.4616	0.023526
648.1520	0.030474
648.8424	0.032425
649.5329	0.034406
650.2236	0.030485
650.9143	0.027195
651.6051	0.029017
652.2960	0.029782
652.9870	0.032132
653.6780	0.031558
654.3692	0.034280
655.0605	0.068031
655.7518	1.019191
656.4433	1.006725
657.1348	0.915123
657.8264	0.556572
658.5181	0.421244
659.2099	0.330837
659.9018	0.089136
660.5938	0.031240
661.2859	0.024751
661.9781	0.022399
662.6704	0.024162
663.3627	0.021682
664.0552	0.021091
664.7477	0.023552
665.4403	0.026503
666.1330	0.024526
666.8259	0.022802
667.5188	0.020858
668.2117	0.019098
668.9048	0.020160
669.5980	0.019527
670.2913	0.024021
670.9846	0.021363
671.6781	0.028642
672.3716	0.036027
673.0652	0.032355
673.7589	0.029275
674.4527	0.028199
675.1466	0.026194
675.8406	0.026785
676.5347	0.024042
677.2288	0.024317
677.9231	0.029866
678.6174	0.029296
679.3119	0.033938
680.0064	0.036849
680.7010	0.035119
681.3957	0.036702
682.0905	0.032925
682.7854	0.029043
683.4803	0.030836
684.1754	0.033664
684.8705	0.038685
685.5658	0.047125
686.2611	0.047272
686.9565	0.041576
687.6520	0.041555
688.3476	0.039255
689.0433	0.037335
689.7390	0.036807
690.4349	0.035963
691.1308	0.037229
691.8269	0.039002
692.5230	0.040310
693.2192	0.041301
693.9155	0.035288
694.6119	0.033410
695.3083	0.037145
696.0049	0.031976
696.7016	0.037082
697.3983	0.041175
698.0951	0.039635
698.7920	0.036111
699.4890	0.033642
700.1861	0.031659
700.8833	0.030013
701.5806	0.027714
702.2779	0.031533
702.9753	0.029824
703.6729	0.029465
704.3705	0.027925
705.0682	0.023304
705.7660	0.024781
706.4638	0.032060
707.1618	0.035394
707.8599	0.039909
708.5580	0.039360
709.2562	0.032651
709.9545	0.033094
710.6529	0.035288
711.3514	0.030478
712.0500	0.028009
712.7486	0.029718
713.4474	0.031722
714.1462	0.034170
714.8451	0.034782
715.5441	0.033685
716.2432	0.028726
716.9424	0.028621
717.6416	0.026194
718.3410	0.030119
719.0404	0.030245
719.7399	0.028157
720.4395	0.028684
721.1392	0.029781
721.8390	0.029781
722.5388	0.027819
723.2388	0.027714
723.9388	0.027566
724.6389	0.028473
725.3391	0.033790
726.0394	0.034233
726.7398	0.033896
727.4403	0.033474
728.1408	0.034655
728.8414	0.032967
729.5421	0.036892
730.2429	0.036174
730.9438	0.045479
731.6448	0.044445
732.3458	0.040500
733.0470	0.043918
733.7482	0.047125
734.4495	0.053243
735.1509	0.047061
735.8524	0.050395
736.5539	0.050374
737.2556	0.048327
737.9573	0.043749
738.6591	0.040943
739.3610	0.046133
740.0630	0.041829
740.7651	0.039023
741.4672	0.034929
742.1695	0.033199
742.8718	0.032967
743.5742	0.032187
744.2767	0.030034
744.9792	0.031828
745.6819	0.027798
746.3846	0.029127
747.0874	0.028368
747.7903	0.031448
748.4933	0.029781
749.1964	0.030414
749.8995	0.036976
750.6028	0.040141
751.3061	0.038221
752.0095	0.040141
752.7130	0.037103
753.4166	0.036638
754.1202	0.043179
754.8239	0.040141
755.5278	0.043496
756.2317	0.045901
756.9356	0.051471
757.6397	0.058582
758.3438	0.058117
759.0481	0.056071
759.7524	0.062000
760.4568	0.065122
761.1613	0.062337
761.8658	0.054699
762.5705	0.048137
763.2752	0.048813
763.9800	0.052484
764.6849	0.058012
765.3898	0.058898
766.0949	0.049952
766.8000	0.041301
767.5052	0.037757
768.2105	0.044614
768.9159	0.051893
769.6214	0.044297
770.3269	0.044150
771.0325	0.048011
771.7382	0.046745
772.4440	0.042736
773.1499	0.038959
773.8558	0.038643
774.5618	0.034043
775.2679	0.028790
775.9741	0.026806
776.6804	0.026342
777.3868	0.024971
778.0932	0.025266
778.7997	0.028769
779.5063	0.030773
780.2130	0.027819
780.9197	0.031300
781.6265	0.034866
782.3335	0.036322
783.0405	0.032144
783.7475	0.034043
784.4547	0.031111
785.1619	0.031258
785.8692	0.029866
786.5766	0.028579
787.2841	0.029528
787.9917	0.029971
788.6993	0.032376
789.4070	0.030604
790.1148	0.027207
790.8227	0.025224
791.5306	0.023367
792.2387	0.022481
792.9468	0.020034
793.6550	0.024760
794.3632	0.032229
795.0716	0.032841
795.7800	0.028853
796.4885	0.024232
797.1971	0.020561
797.9058	0.025203
798.6145	0.021911
799.3233	0.023979
800.0322	0.021194
800.7412	0.019738
801.4503	0.019232
802.1594	0.017586
802.8686	0.015518
803.5779	0.019633
804.2873	0.017966
804.9968	0.016679
805.7063	0.018219
806.4159	0.024591
807.1256	0.024127
807.8354	0.023599
808.5452	0.022122
809.2551	0.021574
809.9651	0.017966
810.6752	0.019422
811.3853	0.020329
812.0956	0.016426
812.8059	0.014041
813.5163	0.013641
814.2267	0.020055
814.9373	0.016953
815.6479	0.014590
816.3586	0.013641
817.0694	0.013113
817.7802	0.013894
818.4912	0.012881
819.2022	0.012121
819.9133	0.011721
820.6244	0.016426
821.3357	0.018367
822.0470	0.014506
822.7584	0.014105
823.4698	0.012522
824.1814	0.012016
824.8930	0.011320
825.6047	0.014442
826.3165	0.012923
827.0283	0.012733
827.7402	0.016236
828.4522	0.012332
829.1643	0.012290
829.8765	0.011172
830.5887	0.009737
831.3010	0.010265
832.0134	0.008028
832.7259	0.008935
833.4384	0.008513
834.1510	0.011467
834.8637	0.010370
835.5765	0.009231
836.2893	0.010560
837.0022	0.010265
837.7152	0.005201
838.4283	0.006066
839.1414	0.006741
839.8546	0.007100
840.5679	0.007543
841.2813	0.006973
841.9947	0.005180
842.7082	0.005496
843.4218	0.006087
844.1355	0.005391
844.8492	0.005306
845.5631	0.005581
846.2770	0.004062
846.9909	0.003661
847.7050	0.004652
848.4191	0.005517
849.1333	0.004104
849.8475	0.005370
850.5619	0.003872
851.2763	0.004062
851.9908	0.004779
852.7053	0.009421
853.4200	0.012353
854.1347	0.015054
854.8495	0.015582
855.5643	0.012375
856.2792	0.012522
856.9942	0.011193
857.7093	0.010560
858.4245	0.008788
859.1397	0.008535
859.8550	0.008366
860.5704	0.008492
861.2858	0.006720
862.0013	0.006087
862.7169	0.005707
863.4326	0.006256
864.1483	0.005834
864.8642	0.005159
865.5800	0.005222
866.2960	0.005159
867.0120	0.006150
867.7281	0.005201
868.4443	0.005876
869.1606	0.006256
869.8769	0.004673
870.5933	0.004146
871.3097	0.006509
872.0263	0.004610
872.7429	0.004758
873.4596	0.005243
874.1763	0.004547
874.8932	0.005813
875.6101	0.006741
876.3270	0.005813
877.0441	0.004484
877.7612	0.005792
878.4784	0.007142
879.1957	0.007606
879.9130	0.007670
880.6304	0.008408
881.3479	0.007817
882.0654	0.007522
882.7831	0.006952
883.5007	0.006024
884.2185	0.006171
884.9363	0.006593
885.6542	0.006720
886.3722	0.006530
887.0903	0.004716
887.8084	0.004800
888.5266	0.005285
889.2448	0.006699
889.9632	0.005475
890.6816	0.004019
891.4001	0.005602
892.1186	0.004040
892.8372	0.007395
893.5559	0.005792
894.2747	0.004948
894.9935	0.004906
895.7124	0.003450
896.4314	0.004800
897.1504	0.004800
897.8695	0.004547
898.5887	0.005602
899.3079	0.005074
900.0272	0.002711
900.7466	0.004568
901.4661	0.003808
902.1856	0.005771
902.9052	0.004969
903.6249	0.003365
904.3446	0.003893
905.0644	0.005243
905.7843	0.005623
906.5043	0.005454
907.2243	0.004230
907.9444	0.003851
908.6645	0.003661
909.3847	0.004062
910.1050	0.004779
910.8254	0.005328
911.5458	0.004273
912.2663	0.005560
912.9869	0.003597
913.7075	0.003260
914.4283	0.003640
915.1490	0.002648
915.8699	0.002986
916.5908	0.003386
917.3118	0.003365
918.0328	0.004526
918.7539	0.004652
919.4751	0.004040
920.1964	0.001762
920.9177	0.003218
921.6391	0.004884
922.3606	0.003239
923.0821	0.002205
923.8037	0.003661
924.5254	0.003640
925.2471	0.002458
925.9689	0.002606
926.6908	0.003829
927.4127	0.002943
928.1347	0.004167
928.8568	0.001994
929.5789	0.003829
930.3011	0.001909
931.0234	0.003028
931.7457	0.002395
932.4681	0.004484
933.1906	0.002817
933.9131	0.002353
934.6358	0.001192
935.3584	0.002859
936.0812	0.001825
936.8040	0.001150
937.5269	0.001487
938.2498	0.002648
938.9728	0.003492
939.6959	0.001298
940.4190	0.001087
941.1422	0.000222
941.8655	0.001931
942.5889	0.001804
943.3123	0.002289
944.0357	0.000390
944.7593	0.000475
945.4829	0.002036
946.2066	0.000559
946.9303	0.000538
947.6541	0.001783
948.3780	0.001340
949.1019	0.000918
949.8259	0.000876
950.5500	0.001762
951.2741	0.001066
951.9983	0.001783
952.7226	0.001741
953.4469	0.002015
954.1713	-0.000306
954.8958	0.000116
955.6203	0.001213
956.3449	0.001424
957.0696	0.001298
957.7943	0.001846
958.5191	0.001066
959.2439	0.000348
959.9688	-0.000369
960.6938	0.000243
961.4189	0.000137
962.1440	-0.000158
962.8692	0.000074
963.5944	0.001382
964.3197	0.001213
965.0451	0.001213
965.7705	0.000644
966.4960	0.000559
967.2216	-0.000369
967.9472	-0.000369
968.6729	0.001319
969.3987	0.000116
970.1245	0.000622
970.8504	0.000749
971.5763	-0.000032
972.3023	0.001867
973.0284	0.001931
973.7545	0.000981
974.4807	0.000348
975.2070	0.001150
975.9333	0.000897
976.6597	0.001319
977.3862	0.000053
978.1127	0.000390
978.8393	0.000580
979.5659	-0.000622
980.2926	0.000496
981.0194	-0.000137
981.7462	-0.000348
982.4731	0.002142
983.2001	0.001298
983.9271	0.001234
984.6542	0.001192
985.3814	0.001150
986.1086	-0.000728
986.8358	0.001108
987.5632	-0.000285
988.2906	0.000833
989.0180	0.000833
989.7456	-0.000264
990.4732	0.001002
991.2008	-0.000200
991.9285	-0.000897
992.6563	0.000137
993.3841	0.000622
994.1120	0.000580
994.8400	-0.000454
995.5680	0.000137
996.2961	0.000390
997.0242	0.000116
997.7524	0.000369
998.4807	0.000011
999.2090	-0.000686
999.9374	-0.000158
1000.67	0.000306
1001.39	0.000770
1002.12	0.000390
1002.85	0.001656
1003.58	0.000496
1004.31	0.000559
1005.04	0.000433
1005.77	0.000095
1006.5	-0.000707
1007.22	0.000306
1007.95	0.001108
1008.68	0.000137
1009.41	-0.000749
1010.14	0.000285
1010.87	0.001762
1011.6	0.000475
1012.33	0.000475
1013.06	-0.000327
1013.79	0.001340
1014.52	0.001614
1015.25	0.001276
1015.98	-0.000622
1016.71	0.000116
1017.44	-0.000264
1018.17	0.001783
1018.9	0.000496
1019.63	0.000707
1020.36	0.000580
1021.09	0.001741
1021.82	0.000454
1022.55	0.000728
1023.03	-0.000222