File: Auto_Polymerization/Spectra/old spectra (lamp off or wrong integration time)/spectrum_2025-06-19_09-15-05.txt
# Wavelength (nm)	Intensity (a.u.)
197.7802	0.002058
198.3922	0.000197
199.0044	0.002058
199.6168	-0.000289
200.2292	0.000515
200.8418	-0.001685
201.4546	0.001318
202.0674	-0.000056
202.6805	-0.000670
203.2936	-0.000226
203.9069	0.002228
204.5203	0.000451
205.1338	0.000388
205.7475	0.001487
206.3614	-0.000564
206.9753	-0.000860
207.5894	0.000747
208.2036	-0.000500
208.8180	0.002079
209.4325	-0.000226
210.0471	0.001297
210.6618	0.000536
211.2767	0.002143
211.8918	-0.000056
212.5069	0.001995
213.1222	0.000938
213.7376	-0.000458
214.3532	0.000261
214.9689	-0.000374
215.5847	0.000641
216.2007	0.001551
216.8168	-0.000500
217.4330	0.001910
218.0494	-0.000014
218.6659	0.002312
219.2825	-0.000204
219.8992	0.001170
220.5161	-0.000120
221.1332	0.000430
221.7503	-0.000733
222.3676	-0.000797
222.9850	0.000219
223.6026	0.001847
224.2203	0.000388
224.8381	-0.000395
225.4561	0.000493
226.0742	0.000980
226.6924	-0.000627
227.3107	-0.000352
227.9292	-0.000374
228.5478	0.001318
229.1666	-0.000078
229.7855	-0.001114
230.4045	0.001826
231.0236	0.000916
231.6429	0.000367
232.2623	0.000641
232.8818	0.000176
233.5015	0.000747
234.1213	0.000578
234.7413	0.001931
235.3613	-0.000670
235.9815	0.002185
236.6018	0.000388
237.2223	0.000240
237.8429	0.000049
238.4636	0.001149
239.0845	0.000070
239.7055	0.001022
240.3266	0.000240
240.9478	0.001720
241.5692	-0.000183
242.1907	0.001635
242.8124	0.001149
243.4341	-0.002108
244.0560	0.001889
244.6781	0.001001
245.3002	-0.000923
245.9225	0.000832
246.5449	-0.000035
247.1675	0.001530
247.7902	-0.001198
248.4130	0.000388
249.0359	0.001762
249.6590	-0.000204
250.2822	0.001022
250.9056	-0.000839
251.5290	0.000007
252.1526	-0.000289
252.7763	-0.000014
253.4002	-0.000437
254.0242	0.000049
254.6483	0.001022
255.2725	-0.000331
255.8969	0.001086
256.5214	0.000282
257.1460	0.001339
257.7708	0.002312
258.3957	0.000070
259.0207	-0.000099
259.6459	-0.000839
260.2711	0.000028
260.8965	-0.000797
261.5221	0.000726
262.1477	0.000895
262.7735	0.001360
263.3995	0.001699
264.0255	-0.000268
264.6517	0.000430
265.2780	-0.001156
265.9044	0.002925
266.5310	0.001191
267.1577	-0.000099
267.7845	0.000028
268.4114	0.000938
269.0385	0.000070
269.6657	0.000176
270.2931	-0.001008
270.9205	0.000663
271.5481	-0.000712
272.1758	0.000895
272.8037	-0.002129
273.4316	0.000536
274.0597	-0.000733
274.6880	-0.000479
275.3163	-0.000035
275.9448	0.001487
276.5734	0.001699
277.2022	0.001086
277.8310	-0.001896
278.4600	0.002376
279.0891	-0.000395
279.7184	-0.000204
280.3477	-0.000543
280.9772	0.000832
281.6069	0.002249
282.2366	-0.000035
282.8665	-0.000945
283.4965	0.001445
284.1266	0.000557
284.7569	-0.000500
285.3873	0.000895
286.0178	0.001064
286.6484	0.000176
287.2792	0.003454
287.9101	0.000345
288.5411	0.000747
289.1723	0.000663
289.8035	-0.000268
290.4349	0.000726
291.0665	0.000176
291.6981	0.000282
292.3299	0.001318
292.9618	0.000261
293.5938	-0.000966
294.2260	0.000303
294.8582	0.001191
295.4906	-0.000881
296.1232	0.000155
296.7558	-0.000374
297.3886	0.000684
298.0215	0.001191
298.6545	0.001212
299.2877	-0.002235
299.9210	0.001699
300.5544	0.000219
301.1879	0.000240
301.8215	0.000261
302.4553	0.001910
303.0892	0.001001
303.7233	0.002122
304.3574	-0.000162
304.9917	0.002228
305.6261	-0.001621
306.2606	0.000430
306.8953	-0.000289
307.5301	0.000557
308.1650	-0.000056
308.8000	0.001509
309.4351	-0.001008
310.0704	0.001318
310.7058	-0.000923
311.3413	0.001382
311.9770	-0.001579
312.6127	-0.001981
313.2486	-0.000056
313.8846	-0.000352
314.5208	-0.000310
315.1570	0.000155
315.7934	-0.000627
316.4299	0.001064
317.0666	-0.000014
317.7033	-0.000289
318.3402	-0.000606
318.9772	-0.000120
319.6143	0.000557
320.2516	-0.000374
320.8890	-0.000543
321.5265	0.000726
322.1641	-0.000099
322.8018	-0.000014
323.4397	-0.000247
324.0777	0.001086
324.7158	-0.000289
325.3540	-0.000162
325.9924	-0.000606
326.6308	0.001339
327.2694	-0.000204
327.9082	-0.000331
328.5470	0.001043
329.1860	0.001974
329.8251	-0.000712
330.4643	-0.001473
331.1036	0.000303
331.7431	-0.000120
332.3826	-0.000797
333.0223	0.000134
333.6622	0.000028
334.3021	0.000472
334.9422	-0.001008
335.5823	0.001657
336.2227	-0.000775
336.8631	0.000324
337.5036	0.000176
338.1443	-0.000310
338.7851	-0.000352
339.4260	-0.001071
340.0670	-0.000437
340.7082	0.000134
341.3495	-0.000945
341.9909	0.002439
342.6324	0.002418
343.2740	0.001826
343.9158	0.000324
344.5577	-0.000183
345.1997	0.001255
345.8418	-0.000099
346.4840	-0.001241
347.1264	0.001699
347.7689	-0.000204
348.4115	0.000980
349.0542	0.000811
349.6971	0.000916
350.3400	0.001910
350.9831	0.000959
351.6263	0.000536
352.2696	0.000493
352.9131	0.000895
353.5566	0.000811
354.2003	0.000959
354.8441	0.001212
355.4881	0.000388
356.1321	-0.001896
356.7763	-0.000416
357.4206	0.002016
358.0650	-0.000479
358.7095	0.001487
359.3541	-0.000141
359.9989	0.001678
360.6438	-0.000120
361.2888	0.001107
361.9339	-0.000902
362.5791	0.001318
363.2245	0.000176
363.8699	0.000240
364.5155	-0.001431
365.1612	-0.002065
365.8071	-0.002108
366.4530	-0.000606
367.0991	-0.000120
367.7453	0.000472
368.3916	0.000430
369.0380	-0.000691
369.6845	0.000240
370.3312	-0.000204
370.9780	-0.000691
371.6249	0.000303
372.2719	-0.001579
372.9190	0.000620
373.5663	0.000219
374.2136	0.001424
374.8611	-0.000818
375.5087	-0.000183
376.1564	0.001847
376.8043	-0.000818
377.4522	0.001678
378.1003	0.000768
378.7485	0.001086
379.3968	0.000070
380.0452	-0.000860
380.6938	0.001064
381.3424	-0.000522
381.9912	0.001762
382.6401	-0.001325
383.2891	0.001318
383.9382	-0.001346
384.5875	-0.001114
385.2368	0.000938
385.8863	0.000726
386.5359	-0.000458
387.1856	0.000747
387.8355	-0.000437
388.4854	-0.000120
389.1355	0.000768
389.7856	-0.001198
390.4359	-0.001346
391.0863	-0.001008
391.7369	0.000219
392.3875	0.001382
393.0383	-0.001642
393.6891	0.000557
394.3401	-0.000945
394.9912	0.000599
395.6425	-0.000395
396.2938	0.001360
396.9453	-0.000289
397.5968	-0.000649
398.2485	0.001191
398.9003	-0.001008
399.5522	0.001741
400.2043	0.001022
400.8564	0.000070
401.5087	0.000070
402.1610	-0.000437
402.8135	-0.000099
403.4661	-0.000289
404.1189	0.000324
404.7717	-0.000543
405.4246	-0.000204
406.0777	-0.001981
406.7309	0.000219
407.3842	0.001509
408.0376	0.000430
408.6911	-0.000014
409.3448	-0.000500
409.9985	-0.000902
410.6524	-0.000416
411.3064	0.000599
411.9605	0.001953
412.6147	-0.000585
413.2690	-0.000247
413.9234	0.001403
414.5780	-0.000162
415.2326	0.000684
415.8874	0.001064
416.5423	-0.000035
417.1973	0.001107
417.8524	-0.000247
418.5077	0.000895
419.1630	0.000388
419.8185	-0.000606
420.4741	0.001191
421.1298	-0.001008
421.7856	-0.000289
422.4415	0.000345
423.0975	0.000493
423.7536	-0.000352
424.4099	0.002460
425.0663	-0.001283
425.7228	0.002101
426.3793	-0.000247
427.0361	-0.001114
427.6929	0.000557
428.3498	-0.001093
429.0068	0.000472
429.6640	-0.000204
430.3213	-0.000966
430.9787	0.000303
431.6362	0.000472
432.2938	-0.000437
432.9515	0.000789
433.6093	0.001128
434.2673	0.000811
434.9253	0.000874
435.5835	-0.000522
436.2418	0.000515
436.9001	-0.000775
437.5586	0.002333
438.2173	0.000472
438.8760	0.000493
439.5348	0.001191
440.1938	0.001149
440.8528	0.001551
441.5120	0.001107
442.1713	-0.000458
442.8307	-0.000945
443.4902	-0.001537
444.1498	-0.000099
444.8095	-0.000120
445.4694	0.000916
446.1293	0.001128
446.7894	-0.000543
447.4496	0.000261
448.1098	0.001128
448.7702	0.002185
449.4307	0.001086
450.0914	0.000282
450.7521	0.000007
451.4129	0.000261
452.0739	0.000705
452.7349	-0.001642
453.3961	0.000007
454.0574	0.000049
454.7188	0.000261
455.3803	-0.000374
456.0419	-0.000120
456.7036	-0.000099
457.3654	-0.000014
458.0274	0.000134
458.6894	-0.001600
459.3516	0.000536
460.0138	0.000282
460.6762	0.000430
461.3387	-0.000268
462.0013	0.000472
462.6640	0.001086
463.3268	-0.000141
463.9897	-0.000754
464.6528	0.001403
465.3159	0.000007
465.9792	0.001551
466.6425	-0.000437
467.3060	0.000388
467.9696	-0.000162
468.6333	0.001530
469.2970	-0.000797
469.9610	0.001234
470.6250	0.000409
471.2891	0.000240
471.9533	-0.001346
472.6177	-0.002108
473.2821	0.001128
473.9467	0.000176
474.6113	-0.001304
475.2761	0.000515
475.9410	-0.001727
476.6060	0.000197
477.2711	0.006309
477.9363	-0.000543
478.6016	-0.000627
479.2670	-0.000120
479.9325	-0.000627
480.5982	0.000768
481.2639	0.001043
481.9298	0.001593
482.5957	-0.000987
483.2618	-0.000627
483.9280	0.001234
484.5943	0.001445
485.2606	-0.001368
485.9271	0.000663
486.5937	0.000219
487.2605	0.000663
487.9273	-0.000775
488.5942	0.000832
489.2612	-0.000500
489.9284	0.001170
490.5956	0.000599
491.2630	0.000536
491.9304	-0.000226
492.5980	-0.000585
493.2657	0.000663
493.9334	0.000092
494.6013	-0.000289
495.2693	0.001424
495.9374	-0.000395
496.6056	0.000176
497.2739	0.000663
497.9423	0.001360
498.6109	-0.000056
499.2795	-0.000289
499.9482	0.000240
500.6171	0.001783
501.2860	-0.000035
501.9551	0.000345
502.6242	-0.000014
503.2935	0.000938
503.9628	-0.000775
504.6323	0.001149
505.3019	-0.000522
505.9716	0.000007
506.6414	0.001530
507.3113	0.000895
507.9813	-0.000458
508.6514	-0.000056
509.3216	0.000938
509.9919	-0.000627
510.6623	0.000134
511.3329	-0.000818
512.0035	0.002354
512.6742	-0.000797
513.3451	-0.000818
514.0160	0.000747
514.6871	0.000747
515.3582	0.000515
516.0295	0.001741
516.7008	0.000028
517.3723	-0.000712
518.0439	0.001107
518.7155	0.002270
519.3873	0.001128
520.0592	0.000747
520.7312	0.001318
521.4033	0.001805
522.0755	0.000197
522.7478	-0.001050
523.4202	-0.000754
524.0927	-0.000374
524.7653	-0.000395
525.4380	-0.000585
526.1108	-0.001071
526.7837	0.000980
527.4568	-0.000712
528.1299	-0.000902
528.8031	0.000134
529.4765	0.000811
530.1499	0.001720
530.8234	0.000684
531.4971	0.000620
532.1708	-0.000522
532.8447	0.000219
533.5186	0.000430
534.1927	-0.000310
534.8668	-0.001833
535.5411	-0.001748
536.2155	0.000747
536.8899	0.000536
537.5645	0.000768
538.2392	-0.000902
538.9139	0.000240
539.5888	-0.000014
540.2638	-0.000352
540.9389	-0.000627
541.6140	0.000113
542.2893	0.000832
542.9647	-0.000395
543.6402	0.001064
544.3158	-0.000923
544.9915	0.001022
545.6673	0.000768
546.3432	-0.000458
547.0192	0.000028
547.6953	0.000895
548.3715	-0.000056
549.0478	-0.000733
549.7242	-0.000923
550.4007	-0.000120
551.0773	0.000113
551.7540	-0.000014
552.4308	-0.000035
553.1077	0.000219
553.7847	0.001149
554.4618	0.000028
555.1390	-0.000691
555.8163	0.001191
556.4937	0.000620
557.1712	0.000176
557.8488	0.000007
558.5266	0.001001
559.2044	0.000811
559.8823	-0.001114
560.5603	0.000324
561.2384	-0.001304
561.9166	0.001234
562.5949	0.001614
563.2733	0.000747
563.9519	-0.000099
564.6305	0.000388
565.3092	0.000895
565.9880	0.000367
566.6669	-0.000437
567.3459	0.000324
568.0250	-0.000966
568.7043	0.000959
569.3836	0.000324
570.0630	0.001826
570.7425	-0.001410
571.4221	0.001360
572.1018	-0.000268
572.7816	0.000705
573.4615	-0.001981
574.1415	-0.001685
574.8216	-0.001114
575.5018	0.000980
576.1821	0.001783
576.8626	-0.001304
577.5431	-0.000754
578.2237	0.000768
578.9044	0.000303
579.5851	0.000282
580.2660	-0.000522
580.9470	0.001107
581.6281	0.000895
582.3093	-0.000120
582.9906	-0.000141
583.6720	0.001022
584.3535	0.000176
585.0351	-0.000881
585.7167	0.001086
586.3985	0.000282
587.0804	0.001360
587.7624	0.000557
588.4445	-0.000712
589.1266	0.000409
589.8089	0.000768
590.4913	0.001107
591.1737	-0.000183
591.8563	-0.000606
592.5389	0.001509
593.2217	-0.001642
593.9046	-0.000162
594.5875	-0.001494
595.2705	-0.000162
595.9537	0.000028
596.6369	0.001043
597.3203	-0.000056
598.0037	-0.000268
598.6872	-0.000839
599.3709	-0.000691
600.0546	-0.001177
600.7384	-0.001029
601.4223	0.001678
602.1064	0.001022
602.7905	0.001509
603.4747	-0.000712
604.1590	-0.001071
604.8434	-0.000331
605.5279	-0.001727
606.2125	-0.001135
606.8972	-0.000268
607.5819	0.001805
608.2668	0.000240
608.9518	-0.000099
609.6369	-0.000120
610.3220	-0.000014
611.0073	-0.001368
611.6927	0.000515
612.3781	-0.000818
613.0637	0.000451
613.7493	-0.000437
614.4351	-0.000543
615.1209	0.000092
615.8068	0.002735
616.4929	0.000409
617.1790	-0.000310
617.8652	0.000113
618.5515	-0.000014
619.2379	-0.001452
619.9244	0.000197
620.6110	0.000789
621.2977	0.000557
621.9845	-0.000543
622.6714	-0.000331
623.3584	-0.000775
624.0454	0.000049
624.7326	0.000219
625.4199	-0.001114
626.1072	-0.000987
626.7947	0.000832
627.4822	0.001170
628.1698	-0.000543
628.8576	-0.000374
629.5454	0.000959
630.2333	0.001191
630.9213	-0.000543
631.6094	-0.000543
632.2976	0.000853
632.9859	-0.000775
633.6743	0.000874
634.3628	0.000240
635.0514	0.000049
635.7400	-0.001896
636.4288	0.000303
637.1177	0.000388
637.8066	-0.000120
638.4957	0.000472
639.1848	0.000726
639.8740	0.001328
640.5633	-0.000185
641.2528	0.002231
641.9423	-0.000248
642.6319	-0.000985
643.3216	0.000894
644.0113	0.001150
644.7012	-0.001379
645.3912	-0.000015
646.0812	-0.001555
646.7714	0.001477
647.4616	0.000452
648.1520	0.000513
648.8424	0.001688
649.5329	-0.002351
650.2236	0.000049
650.9143	-0.000419
651.6051	-0.001224
652.2960	0.001024
652.9870	0.000968
653.6780	0.000523
654.3692	-0.001436
655.0605	0.001311
655.7518	0.000115
656.4433	-0.000035
657.1348	0.000641
657.8264	0.001106
658.5181	-0.000752
659.2099	-0.000546
659.9018	-0.000671
660.5938	0.000387
661.2859	-0.000629
661.9781	-0.000057
662.6704	-0.000695
663.3627	0.001233
664.0552	-0.001964
664.7477	0.000217
665.4403	0.000425
666.1330	0.001017
666.8259	-0.000035
667.5188	0.000092
668.2117	0.000468
668.9048	0.000219
669.5980	0.000007
670.2913	0.001699
670.9846	-0.000120
671.6781	0.001910
672.3716	0.000303
673.0652	-0.000522
673.7589	-0.001135
674.4527	0.000472
675.1466	-0.000543
675.8406	-0.000352
676.5347	0.000388
677.2288	-0.000141
677.9231	-0.001579
678.6174	0.000092
679.3119	-0.001262
680.0064	-0.000120
680.7010	-0.001093
681.3957	0.000811
682.0905	0.000895
682.7854	-0.000670
683.4803	0.000345
684.1754	0.001382
684.8705	-0.000818
685.5658	0.001128
686.2611	-0.000522
686.9565	0.000070
687.6520	0.001678
688.3476	-0.000035
689.0433	-0.001706
689.7390	0.000472
690.4349	0.000219
691.1308	0.000768
691.8269	-0.000247
692.5230	0.000980
693.2192	0.000832
693.9155	0.000176
694.6119	0.000536
695.3083	-0.001156
696.0049	0.000557
696.7016	-0.000204
697.3983	0.000049
698.0951	0.000028
698.7920	0.005992
699.4890	-0.001283
700.1861	0.001128
700.8833	-0.001558
701.5806	0.000176
702.2779	-0.000395
702.9753	0.000959
703.6729	0.001593
704.3705	-0.000056
705.0682	-0.000712
705.7660	0.001043
706.4638	-0.000374
707.1618	0.001889
707.8599	-0.001452
708.5580	-0.001177
709.2562	0.000684
709.9545	0.000028
710.6529	-0.000099
711.3514	-0.000522
712.0500	-0.001537
712.7486	0.000113
713.4474	-0.000522
714.1462	-0.000500
714.8451	-0.000437
715.5441	0.000789
716.2432	-0.000606
716.9424	-0.002171
717.6416	-0.000141
718.3410	-0.000987
719.0404	0.000916
719.7399	0.001276
720.4395	0.000409
721.1392	0.000007
721.8390	0.001107
722.5388	0.001234
723.2388	-0.000500
723.9388	0.000451
724.6389	-0.000162
725.3391	0.000515
726.0394	-0.000120
726.7398	0.000895
727.4403	-0.000183
728.1408	0.000092
728.8414	-0.001431
729.5421	0.001043
730.2429	-0.000860
730.9438	-0.000056
731.6448	-0.000056
732.3458	-0.000923
733.0470	-0.001368
733.7482	0.000303
734.4495	0.000493
735.1509	0.000345
735.8524	-0.000035
736.5539	0.000557
737.2556	0.001466
737.9573	-0.001431
738.6591	0.000493
739.3610	-0.000035
740.0630	-0.000204
740.7651	0.002164
741.4672	-0.000352
742.1695	0.000895
742.8718	0.000155
743.5742	0.000367
744.2767	0.000663
744.9792	0.000980
745.6819	0.000705
746.3846	0.001635
747.0874	0.000472
747.7903	0.002228
748.4933	0.000916
749.1964	0.000895
749.8995	-0.000923
750.6028	0.000789
751.3061	0.000684
752.0095	0.002925
752.7130	0.000705
753.4166	0.001445
754.1202	0.000895
754.8239	0.000853
755.5278	0.000028
756.2317	-0.000458
756.9356	0.000028
757.6397	0.000620
758.3438	-0.001389
759.0481	0.000515
759.7524	0.000641
760.4568	-0.000627
761.1613	-0.000183
761.8658	0.001910
762.5705	0.000493
763.2752	-0.000120
763.9800	-0.001071
764.6849	-0.001621
765.3898	0.001318
766.0949	0.000197
766.8000	-0.001135
767.5052	0.001678
768.2105	0.001086
768.9159	-0.000923
769.6214	0.000134
770.3269	-0.002150
771.0325	0.000451
771.7382	-0.000902
772.4440	0.001064
773.1499	-0.000458
773.8558	0.001593
774.5618	-0.001071
775.2679	0.000007
775.9741	-0.001114
776.6804	-0.001093
777.3868	-0.000945
778.0932	-0.000564
778.7997	-0.000289
779.5063	-0.000141
780.2130	0.001128
780.9197	0.001212
781.6265	0.000536
782.3335	0.000853
783.0405	-0.001389
783.7475	0.000240
784.4547	-0.001600
785.1619	-0.000670
785.8692	-0.001473
786.5766	0.000345
787.2841	-0.002023
787.9917	-0.000754
788.6993	-0.002235
789.4070	0.000641
790.1148	-0.000712
790.8227	0.001170
791.5306	0.000070
792.2387	-0.000543
792.9468	-0.001029
793.6550	-0.000289
794.3632	-0.000014
795.0716	0.000303
795.7800	-0.000606
796.4885	-0.000035
797.1971	0.000874
797.9058	-0.001896
798.6145	0.001297
799.3233	-0.000183
800.0322	-0.000606
800.7412	0.001678
801.4503	-0.000352
802.1594	-0.000479
802.8686	0.000557
803.5779	0.000007
804.2873	0.001107
804.9968	-0.001008
805.7063	-0.000902
806.4159	0.001635
807.1256	0.000557
807.8354	-0.000374
808.5452	-0.000585
809.2551	0.001995
809.9651	0.002164
810.6752	0.000599
811.3853	0.000409
812.0956	0.000515
812.8059	-0.000712
813.5163	0.000895
814.2267	-0.000352
814.9373	-0.000120
815.6479	0.000070
816.3586	0.000684
817.0694	0.001360
817.7802	0.001318
818.4912	0.001805
819.2022	0.000451
819.9133	0.000684
820.6244	0.000303
821.3357	0.000028
822.0470	-0.001558
822.7584	-0.000416
823.4698	-0.000183
824.1814	0.000980
824.8930	-0.000585
825.6047	-0.000649
826.3165	0.001234
827.0283	0.001086
827.7402	0.001255
828.4522	0.001974
829.1643	-0.000247
829.8765	0.001762
830.5887	-0.000120
831.3010	-0.000056
832.0134	-0.000078
832.7259	-0.002065
833.4384	0.000303
834.1510	0.000789
834.8637	-0.000712
835.5765	-0.000120
836.2893	-0.000966
837.0022	0.001107
837.7152	0.000959
838.4283	0.001297
839.1414	0.000388
839.8546	0.000768
840.5679	-0.000458
841.2813	0.000134
841.9947	0.000472
842.7082	0.000303
843.4218	0.000641
844.1355	-0.000458
844.8492	-0.001790
845.5631	-0.000691
846.2770	0.000134
846.9909	0.001170
847.7050	0.002058
848.4191	0.000028
849.1333	-0.000522
849.8475	0.000367
850.5619	0.000197
851.2763	-0.000120
851.9908	-0.000818
852.7053	0.001001
853.4200	-0.000416
854.1347	-0.000352
854.8495	0.000578
855.5643	0.001487
856.2792	0.000070
856.9942	0.000367
857.7093	-0.000268
858.4245	0.001783
859.1397	-0.000056
859.8550	0.001255
860.5704	-0.000120
861.2858	-0.000204
862.0013	0.000345
862.7169	-0.000543
863.4326	0.001466
864.1483	0.000557
864.8642	-0.000458
865.5800	0.000007
866.2960	-0.000416
867.0120	0.000832
867.7281	-0.001748
868.4443	-0.000352
869.1606	-0.000374
869.8769	0.000959
870.5933	-0.000416
871.3097	0.000641
872.0263	-0.000458
872.7429	-0.000670
873.4596	0.000451
874.1763	0.000176
874.8932	0.000578
875.6101	-0.000035
876.3270	-0.000543
877.0441	-0.001262
877.7612	0.000726
878.4784	-0.001093
879.1957	0.001234
879.9130	-0.000670
880.6304	0.000472
881.3479	0.001086
882.0654	0.001234
882.7831	-0.001790
883.5007	0.001783
884.2185	-0.001431
884.9363	0.002291
885.6542	-0.000564
886.3722	0.000726
887.0903	-0.000585
887.8084	0.001212
888.5266	0.000155
889.2448	-0.000374
889.9632	0.000197
890.6816	0.000155
891.4001	-0.000416
892.1186	0.000916
892.8372	0.000240
893.5559	0.001339
894.2747	-0.001283
894.9935	0.000367
895.7124	-0.000352
896.4314	-0.000183
897.1504	-0.000543
897.8695	0.000176
898.5887	0.000134
899.3079	-0.000162
900.0272	0.000430
900.7466	-0.000289
901.4661	-0.000564
902.1856	-0.000627
902.9052	0.000049
903.6249	0.001107
904.3446	-0.000289
905.0644	0.002333
905.7843	-0.001093
906.5043	0.001149
907.2243	-0.000204
907.9444	-0.000923
908.6645	-0.001219
909.3847	0.000726
910.1050	-0.000352
910.8254	-0.000183
911.5458	0.000388
912.2663	0.000578
912.9869	-0.000902
913.7075	0.001995
914.4283	-0.000712
915.1490	0.000536
915.8699	-0.001219
916.5908	0.000980
917.3118	-0.000479
918.0328	0.001022
918.7539	0.000028
919.4751	0.000367
920.1964	0.000980
920.9177	0.001953
921.6391	-0.000966
922.3606	0.001424
923.0821	-0.000099
923.8037	0.000070
924.5254	0.001086
925.2471	0.000916
925.9689	-0.000035
926.6908	-0.000500
927.4127	-0.000120
928.1347	0.000472
928.8568	-0.000733
929.5789	-0.000564
930.3011	-0.000881
931.0234	0.001657
931.7457	-0.000204
932.4681	0.000345
933.1906	0.001466
933.9131	0.000049
934.6358	-0.001135
935.3584	-0.000247
936.0812	-0.000564
936.8040	0.000240
937.5269	0.000134
938.2498	0.000451
938.9728	0.000895
939.6959	-0.001727
940.4190	-0.001198
941.1422	0.001657
941.8655	0.002968
942.5889	0.000515
943.3123	0.000641
944.0357	-0.001071
944.7593	-0.000754
945.4829	0.000367
946.2066	0.000240
946.9303	0.000219
947.6541	-0.001156
948.3780	0.002058
949.1019	0.000070
949.8259	-0.000458
950.5500	0.001487
951.2741	0.001572
951.9983	-0.000585
952.7226	-0.000458
953.4469	0.000049
954.1713	-0.000479
954.8958	-0.001008
955.6203	0.000578
956.3449	0.001783
957.0696	0.000197
957.7943	0.000959
958.5191	0.001022
959.2439	0.001572
959.9688	-0.001325
960.6938	-0.001241
961.4189	-0.001833
962.1440	-0.000141
962.8692	0.000388
963.5944	0.001593
964.3197	-0.000754
965.0451	0.001551
965.7705	-0.000120
966.4960	-0.000416
967.2216	0.000599
967.9472	0.000367
968.6729	-0.001706
969.3987	0.000472
970.1245	0.000155
970.8504	0.001509
971.5763	0.000303
972.3023	-0.000585
973.0284	-0.000204
973.7545	0.002376
974.4807	-0.001410
975.2070	-0.000564
975.9333	-0.001494
976.6597	-0.000310
977.3862	-0.001135
978.1127	0.000938
978.8393	0.001107
979.5659	0.001318
980.2926	0.000663
981.0194	0.000726
981.7462	-0.000141
982.4731	0.001128
983.2001	-0.000691
983.9271	0.001445
984.6542	-0.000014
985.3814	0.000261
986.1086	0.002164
986.8358	-0.000247
987.5632	0.001339
988.2906	0.002101
989.0180	0.000472
989.7456	0.000070
990.4732	0.000049
991.2008	-0.000712
991.9285	-0.000289
992.6563	0.000959
993.3841	-0.000818
994.1120	0.001022
994.8400	-0.001008
995.5680	0.001826
996.2961	0.000895
997.0242	0.001635
997.7524	0.001783
998.4807	0.001466
999.2090	0.001593
999.9374	0.000007
1000.67	0.000684
1001.39	-0.001917
1002.12	-0.001325
1002.85	0.001445
1003.58	-0.001198
1004.31	0.000092
1005.04	-0.000522
1005.77	-0.000775
1006.5	0.001466
1007.22	-0.000522
1007.95	0.001128
1008.68	-0.001664
1009.41	0.001022
1010.14	-0.000162
1010.87	-0.000014
1011.6	0.001297
1012.33	0.001318
1013.06	-0.000331
1013.79	0.000980
1014.52	-0.001304
1015.25	-0.000458
1015.98	-0.000289
1016.71	-0.000204
1017.44	0.001382
1018.17	-0.000374
1018.9	0.000663
1019.63	0.000895
1020.36	-0.000395
1021.09	0.002185
1021.82	-0.002108
1022.55	-0.002509
1023.03	-0.002235