File: Auto_Polymerization/Data/UV_VIS_Spectra/MRG-061-F_old spectra (lamp off or wrong integration time)/spectrum_2025-06-19_09-09-58.txt
# Wavelength (nm)	Intensity (a.u.)
197.7802	0.001570
198.3922	0.001485
199.0044	0.000492
199.6168	-0.001052
200.2292	0.000449
200.8418	-0.000206
201.4546	0.000745
202.0674	-0.000079
202.6805	-0.000270
203.2936	0.001739
203.9069	0.001443
204.5203	0.000196
205.1338	0.001443
205.7475	0.000280
206.3614	-0.000439
206.9753	0.000344
207.5894	-0.000439
208.2036	0.000745
208.8180	-0.000671
209.4325	-0.000629
210.0471	-0.000122
210.6618	-0.000396
211.2767	0.002416
211.8918	-0.000418
212.5069	0.000238
213.1222	-0.001327
213.7376	0.000132
214.3532	0.000174
214.9689	0.000428
215.5847	-0.000714
216.2007	0.000893
216.8168	-0.000100
217.4330	0.000767
218.0494	0.000767
218.6659	0.001337
219.2825	-0.000671
219.8992	0.002183
220.5161	-0.000735
221.1332	-0.000227
221.7503	0.000238
222.3676	0.000492
222.9850	0.001655
223.6026	-0.000185
224.2203	0.000999
224.8381	0.000217
225.4561	0.000640
226.0742	0.000851
226.6924	0.000745
227.3107	-0.001221
227.9292	0.000048
228.5478	0.001824
229.1666	0.000174
229.7855	-0.000164
230.4045	-0.000248
231.0236	0.002543
231.6429	-0.000354
232.2623	-0.000016
232.8818	0.000069
233.5015	0.000301
234.1213	0.000978
234.7413	0.001020
235.3613	-0.000418
235.9815	0.000280
236.6018	0.000893
237.2223	-0.000608
237.8429	-0.000100
238.4636	0.001168
239.0845	0.000069
239.7055	0.003198
240.3266	-0.000164
240.9478	-0.000100
241.5692	0.000069
242.1907	0.001232
242.8124	0.000365
243.4341	0.000915
244.0560	-0.001031
244.6781	-0.000016
245.3002	-0.000143
245.9225	-0.000777
246.5449	-0.001010
247.1675	0.000132
247.7902	-0.000227
248.4130	0.001041
249.0359	0.000915
249.6590	0.001337
250.2822	-0.000735
250.9056	0.000238
251.5290	-0.000164
252.1526	0.000788
252.7763	-0.000143
253.4002	0.001211
254.0242	-0.000819
254.6483	0.000851
255.2725	0.000069
255.8969	0.001041
256.5214	0.002944
257.1460	0.002014
257.7708	-0.000418
258.3957	0.000153
259.0207	-0.000841
259.6459	0.001295
260.2711	-0.000693
260.8965	0.000767
261.5221	0.001084
262.1477	0.001612
262.7735	-0.000312
263.3995	0.001041
264.0255	-0.001306
264.6517	0.000153
265.2780	-0.000523
265.9044	0.003917
266.5310	-0.000058
267.1577	0.000090
267.7845	0.000851
268.4114	-0.000185
269.0385	-0.000883
269.6657	0.000301
270.2931	-0.000544
270.9205	-0.000883
271.5481	-0.000418
272.1758	-0.000566
272.8037	0.000640
273.4316	-0.000798
274.0597	0.000618
274.6880	0.000238
275.3163	0.001105
275.9448	0.001168
276.5734	-0.000122
277.2022	-0.000185
277.8310	-0.000523
278.4600	-0.001073
279.0891	-0.000375
279.7184	0.001084
280.3477	0.000534
280.9772	-0.000312
281.6069	-0.000227
282.2366	0.000322
282.8665	0.000132
283.4965	0.001443
284.1266	-0.001411
284.7569	-0.000375
285.3873	-0.000354
286.0178	0.000534
286.6484	-0.001306
287.2792	0.001739
287.9101	-0.001242
288.5411	0.000492
289.1723	0.001274
289.8035	-0.000481
290.4349	0.001316
291.0665	0.002374
291.6981	0.001168
292.3299	0.000576
292.9618	0.000724
293.5938	-0.000418
294.2260	-0.000164
294.8582	-0.000143
295.4906	-0.000079
296.1232	0.000238
296.7558	-0.000587
297.3886	0.000449
298.0215	0.001274
298.6545	0.000809
299.2877	-0.000544
299.9210	0.000090
300.5544	0.000597
301.1879	0.000978
301.8215	0.001337
302.4553	0.001380
303.0892	0.000449
303.7233	0.001295
304.3574	0.000428
304.9917	0.001105
305.6261	0.000788
306.2606	0.000470
306.8953	0.000851
307.5301	0.000703
308.1650	0.000872
308.8000	0.001253
309.4351	-0.000544
310.0704	0.001274
310.7058	-0.001961
311.3413	0.001697
311.9770	-0.000629
312.6127	0.000280
313.2486	0.000153
313.8846	0.000957
314.5208	0.000090
315.1570	0.000005
315.7934	0.001041
316.4299	0.001845
317.0666	-0.000798
317.7033	-0.001559
318.3402	-0.000502
318.9772	-0.001137
319.6143	0.000661
320.2516	0.000344
320.8890	0.000428
321.5265	0.001803
322.1641	-0.001834
322.8018	0.000449
323.4397	-0.001158
324.0777	-0.000481
324.7158	0.001126
325.3540	-0.000354
325.9924	0.000196
326.6308	0.000957
327.2694	0.000999
327.9082	0.002796
328.5470	-0.001158
329.1860	0.001972
329.8251	0.000872
330.4643	0.000386
331.1036	-0.000354
331.7431	0.000174
332.3826	-0.000566
333.0223	0.000661
333.6622	-0.000925
334.3021	0.000301
334.9422	0.000259
335.5823	0.001020
336.2227	0.000174
336.8631	0.000830
337.5036	-0.000544
338.1443	0.001528
338.7851	0.001041
339.4260	-0.000100
340.0670	-0.000883
340.7082	-0.000100
341.3495	-0.001221
341.9909	0.002585
342.6324	-0.000164
343.2740	0.000026
343.9158	0.000132
344.5577	0.000153
345.1997	-0.000227
345.8418	-0.001200
346.4840	0.000893
347.1264	0.000449
347.7689	0.000915
348.4115	0.003050
349.0542	-0.000946
349.6971	0.000386
350.3400	0.002035
350.9831	-0.000735
351.6263	0.000322
352.2696	-0.000523
352.9131	-0.000058
353.5566	0.000513
354.2003	0.000576
354.8441	0.000153
355.4881	0.000132
356.1321	-0.000946
356.7763	-0.000100
357.4206	0.001084
358.0650	0.000111
358.7095	-0.000989
359.3541	-0.000946
359.9989	0.001570
360.6438	0.000005
361.2888	0.000745
361.9339	-0.000037
362.5791	0.001570
363.2245	0.001337
363.8699	0.001422
364.5155	-0.001179
365.1612	-0.000291
365.8071	-0.000375
366.4530	0.000703
367.0991	-0.001052
367.7453	-0.000587
368.3916	0.000640
369.0380	-0.000756
369.6845	0.000217
370.3312	-0.000333
370.9780	-0.000502
371.6249	0.002078
372.2719	-0.000862
372.9190	0.000640
373.5663	0.000090
374.2136	-0.001200
374.8611	-0.001115
375.5087	-0.000016
376.1564	0.002522
376.8043	0.000238
377.4522	-0.000185
378.1003	0.000470
378.7485	0.001401
379.3968	0.001274
380.0452	-0.002130
380.6938	-0.000967
381.3424	0.001126
381.9912	-0.000100
382.6401	-0.000312
383.2891	0.000026
383.9382	-0.000291
384.5875	0.000365
385.2368	0.000132
385.8863	-0.001517
386.5359	-0.000143
387.1856	0.000640
387.8355	-0.000756
388.4854	-0.000333
389.1355	0.001507
389.7856	0.000597
390.4359	-0.001729
391.0863	-0.000270
391.7369	-0.001369
392.3875	-0.000354
393.0383	0.000259
393.6891	0.000217
394.3401	-0.001686
394.9912	0.000386
395.6425	-0.000629
396.2938	-0.000587
396.9453	0.000618
397.5968	0.000872
398.2485	-0.000671
398.9003	-0.000396
399.5522	-0.001665
400.2043	0.000640
400.8564	0.000470
401.5087	0.000957
402.1610	0.000492
402.8135	-0.000629
403.4661	-0.001306
404.1189	0.001063
404.7717	-0.001771
405.4246	0.001464
406.0777	-0.000629
406.7309	-0.000460
407.3842	-0.000037
408.0376	0.000428
408.6911	0.001612
409.3448	-0.000819
409.9985	0.001041
410.6524	-0.000967
411.3064	0.001443
411.9605	-0.000566
412.6147	0.000661
413.2690	0.000365
413.9234	0.001168
414.5780	0.000301
415.2326	0.000407
415.8874	0.000365
416.5423	0.000238
417.1973	0.001253
417.8524	-0.000523
418.5077	-0.000862
419.1630	-0.000333
419.8185	-0.001877
420.4741	0.000513
421.1298	-0.001094
421.7856	0.000703
422.4415	0.000492
423.0975	-0.000333
423.7536	-0.000439
424.4099	0.002437
425.0663	0.001084
425.7228	0.000682
426.3793	-0.000566
427.0361	-0.000671
427.6929	0.000386
428.3498	-0.000227
429.0068	0.000893
429.6640	0.000703
430.3213	-0.000248
430.9787	0.000026
431.6362	0.002839
432.2938	0.000936
432.9515	-0.000777
433.6093	0.000026
434.2673	0.002437
434.9253	0.000344
435.5835	-0.000016
436.2418	0.001549
436.9001	0.000111
437.5586	0.001274
438.2173	0.000153
438.8760	-0.000333
439.5348	0.000513
440.1938	-0.000693
440.8528	-0.000291
441.5120	0.000259
442.1713	-0.000058
442.8307	0.000470
443.4902	-0.000650
444.1498	0.000576
444.8095	0.001168
445.4694	0.002078
446.1293	0.001591
446.7894	-0.001433
447.4496	0.000788
448.1098	0.000661
448.7702	0.001781
449.4307	0.000682
450.0914	-0.000291
450.7521	-0.000566
451.4129	-0.002088
452.0739	-0.000037
452.7349	0.001274
453.3961	0.001063
454.0574	-0.000375
454.7188	0.000322
455.3803	0.000597
456.0419	-0.001538
456.7036	-0.000375
457.3654	0.000915
458.0274	0.000957
458.6894	-0.000164
459.3516	-0.001665
460.0138	0.000069
460.6762	-0.000037
461.3387	-0.000270
462.0013	0.000682
462.6640	-0.000312
463.3268	-0.000143
463.9897	-0.000650
464.6528	0.000513
465.3159	0.000069
465.9792	-0.000650
466.6425	0.000026
467.3060	0.000999
467.9696	-0.000439
468.6333	0.000682
469.2970	-0.000016
469.9610	-0.000819
470.6250	0.002078
471.2891	-0.000185
471.9533	-0.001115
472.6177	0.000048
473.2821	0.000174
473.9467	0.001972
474.6113	0.000132
475.2761	-0.000375
475.9410	-0.000143
476.6060	0.000830
477.2711	0.006962
477.9363	0.000238
478.6016	0.000322
479.2670	-0.000227
479.9325	-0.000946
480.5982	0.000386
481.2639	-0.000354
481.9298	-0.000248
482.5957	0.000745
483.2618	0.001105
483.9280	-0.000629
484.5943	0.000153
485.2606	0.001507
485.9271	0.000936
486.5937	0.000999
487.2605	0.001084
487.9273	0.000978
488.5942	-0.000143
489.2612	0.000196
489.9284	0.000407
490.5956	-0.000439
491.2630	0.000301
491.9304	0.000048
492.5980	0.000830
493.2657	-0.000312
493.9334	0.000301
494.6013	0.000682
495.2693	-0.001602
495.9374	-0.000058
496.6056	0.000301
497.2739	0.000344
497.9423	0.000640
498.6109	0.000407
499.2795	0.001041
499.9482	0.000365
500.6171	0.000872
501.2860	-0.000312
501.9551	0.001507
502.6242	0.001845
503.2935	-0.000164
503.9628	0.000365
504.6323	0.001063
505.3019	0.001591
505.9716	-0.001665
506.6414	0.001803
507.3113	0.001443
507.9813	-0.000396
508.6514	0.000322
509.3216	0.001633
509.9919	0.000365
510.6623	0.000090
511.3329	0.000196
512.0035	0.002352
512.6742	0.000640
513.3451	-0.000523
514.0160	0.002078
514.6871	0.000005
515.3582	0.002035
516.0295	-0.000925
516.7008	-0.001263
517.3723	-0.001052
518.0439	0.000851
518.7155	0.001147
519.3873	0.001380
520.0592	0.000788
520.7312	-0.001158
521.4033	0.001232
522.0755	0.001105
522.7478	0.000534
523.4202	0.000153
524.0927	-0.000798
524.7653	-0.000185
525.4380	0.000259
526.1108	0.000640
526.7837	0.000470
527.4568	-0.000671
528.1299	-0.000248
528.8031	0.000555
529.4765	0.000069
530.1499	0.001824
530.8234	0.000534
531.4971	0.000682
532.1708	-0.001665
532.8447	-0.000862
533.5186	-0.000523
534.1927	-0.000037
534.8668	0.000048
535.5411	0.000090
536.2155	-0.000291
536.8899	0.000957
537.5645	0.001295
538.2392	0.000936
538.9139	0.000893
539.5888	0.001485
540.2638	-0.000544
540.9389	-0.001644
541.6140	0.000661
542.2893	-0.001538
542.9647	0.001485
543.6402	0.000851
544.3158	0.000280
544.9915	-0.000333
545.6673	-0.000481
546.3432	-0.000058
547.0192	0.000153
547.6953	0.001464
548.3715	0.000132
549.0478	-0.000460
549.7242	-0.000608
550.4007	0.000386
551.0773	0.000555
551.7540	0.000005
552.4308	0.000301
553.1077	0.002733
553.7847	0.000830
554.4618	-0.001285
555.1390	-0.001369
555.8163	0.002966
556.4937	0.000767
557.1712	0.000090
557.8488	-0.000439
558.5266	-0.000312
559.2044	0.000449
559.8823	-0.000693
560.5603	0.001485
561.2384	-0.000756
561.9166	-0.000756
562.5949	0.001612
563.2733	0.000534
563.9519	0.000111
564.6305	0.000386
565.3092	0.000048
565.9880	0.001464
566.6669	-0.001263
567.3459	0.000640
568.0250	-0.000523
568.7043	0.001422
569.3836	0.000259
570.0630	0.000872
570.7425	-0.001115
571.4221	0.001401
572.1018	0.000280
572.7816	0.000132
573.4615	0.000449
574.1415	-0.000312
574.8216	0.000153
575.5018	0.001697
576.1821	0.000344
576.8626	-0.001158
577.5431	-0.000798
578.2237	-0.000798
578.9044	0.001084
579.5851	0.000788
580.2660	-0.001200
580.9470	0.000407
581.6281	-0.000544
582.3093	0.000238
582.9906	-0.000460
583.6720	-0.000418
584.3535	-0.000164
585.0351	-0.000946
585.7167	0.000111
586.3985	-0.000481
587.0804	-0.000270
587.7624	0.000915
588.4445	-0.000037
589.1266	0.000174
589.8089	0.001041
590.4913	0.000745
591.1737	0.001020
591.8563	-0.000122
592.5389	0.000005
593.2217	0.000809
593.9046	-0.000566
594.5875	0.000111
595.2705	0.000830
595.9537	-0.000439
596.6369	0.000111
597.3203	-0.000037
598.0037	0.000872
598.6872	0.000280
599.3709	0.001655
600.0546	0.000365
600.7384	-0.000016
601.4223	-0.000206
602.1064	-0.000206
602.7905	0.000386
603.4747	-0.000714
604.1590	0.000217
604.8434	0.000576
605.5279	-0.000523
606.2125	-0.000883
606.8972	0.000111
607.5819	0.000661
608.2668	0.001253
608.9518	0.001866
609.6369	-0.000037
610.3220	-0.000777
611.0073	0.000153
611.6927	0.000048
612.3781	-0.000206
613.0637	0.002162
613.7493	0.000724
614.4351	-0.001665
615.1209	-0.002300
615.8068	0.000788
616.4929	0.001591
617.1790	0.000111
617.8652	0.000153
618.5515	0.000386
619.2379	-0.001538
619.9244	-0.000693
620.6110	-0.000058
621.2977	0.000767
621.9845	-0.000608
622.6714	0.000048
623.3584	0.000745
624.0454	-0.001855
624.7326	0.000470
625.4199	-0.001242
626.1072	-0.000989
626.7947	-0.000164
627.4822	0.000428
628.1698	0.000661
628.8576	-0.000418
629.5454	-0.000143
630.2333	0.001570
630.9213	0.000111
631.6094	0.000174
632.2976	0.000682
632.9859	-0.000227
633.6743	0.001739
634.3628	0.001168
635.0514	0.000407
635.7400	-0.001771
636.4288	0.000745
637.1177	-0.000248
637.8066	-0.000883
638.4957	-0.000164
639.1848	-0.000270
639.8740	0.001433
640.5633	-0.001252
641.2528	-0.000185
641.9423	-0.001333
642.6319	0.000617
643.3216	0.000827
644.0113	0.001172
644.7012	-0.001537
645.3912	0.001195
646.0812	-0.001914
646.7714	0.000362
647.4616	0.000939
648.1520	0.001479
648.8424	-0.000147
649.5329	-0.001560
650.2236	-0.000184
650.9143	0.000346
651.6051	-0.001162
652.2960	0.000386
652.9870	0.000005
653.6780	0.000113
654.3692	0.000472
655.0605	-0.000678
655.7518	-0.001180
656.4433	0.001091
657.1348	-0.000840
657.8264	0.002035
658.5181	0.000448
659.2099	0.000686
659.9018	-0.001223
660.5938	-0.000818
661.2859	-0.001944
661.9781	0.000938
662.6704	-0.001292
663.3627	-0.000460
664.0552	-0.000609
664.7477	0.000552
665.4403	0.000632
666.1330	0.000342
666.8259	-0.000374
667.5188	-0.001114
668.2117	-0.000498
668.9048	0.000217
669.5980	-0.000841
670.2913	-0.000756
670.9846	0.000132
671.6781	0.001951
672.3716	-0.000819
673.0652	0.000005
673.7589	0.000470
674.4527	-0.001094
675.1466	0.000111
675.8406	0.000618
676.5347	0.000026
677.2288	-0.000185
677.9231	0.000365
678.6174	-0.002574
679.3119	-0.000735
680.0064	0.001211
680.7010	0.000322
681.3957	-0.000418
682.0905	-0.000037
682.7854	-0.000481
683.4803	0.000513
684.1754	0.001041
684.8705	-0.000523
685.5658	0.001824
686.2611	0.000788
686.9565	-0.000904
687.6520	0.000661
688.3476	0.000576
689.0433	0.000090
689.7390	0.000576
690.4349	-0.001285
691.1308	-0.000312
691.8269	-0.001538
692.5230	-0.000904
693.2192	0.001063
693.9155	0.000703
694.6119	0.000534
695.3083	-0.001581
696.0049	0.001570
696.7016	0.000048
697.3983	0.001020
698.0951	0.000788
698.7920	0.005757
699.4890	-0.000650
700.1861	0.001422
700.8833	-0.000671
701.5806	-0.000439
702.2779	0.000682
702.9753	0.000597
703.6729	0.001676
704.3705	-0.000164
705.0682	-0.000883
705.7660	0.000386
706.4638	0.000048
707.1618	-0.000185
707.8599	-0.001855
708.5580	-0.000777
709.2562	0.000576
709.9545	0.000745
710.6529	-0.000523
711.3514	-0.000037
712.0500	-0.000946
712.7486	0.000597
713.4474	0.000470
714.1462	-0.000164
714.8451	-0.001771
715.5441	0.002204
716.2432	-0.000671
716.9424	-0.000016
717.6416	-0.000481
718.3410	0.000428
719.0404	-0.000333
719.7399	-0.000756
720.4395	0.001105
721.1392	0.000048
721.8390	0.001380
722.5388	0.001464
723.2388	0.000153
723.9388	0.000809
724.6389	-0.000100
725.3391	0.002099
726.0394	0.000915
726.7398	0.000999
727.4403	0.000407
728.1408	0.000365
728.8414	-0.001094
729.5421	-0.000122
730.2429	-0.001094
730.9438	-0.000143
731.6448	0.002352
732.3458	-0.000016
733.0470	-0.000819
733.7482	-0.000883
734.4495	0.001189
735.1509	0.000090
735.8524	-0.000502
736.5539	0.000322
737.2556	0.000618
737.9573	0.000534
738.6591	-0.000185
739.3610	0.000322
740.0630	-0.000058
740.7651	-0.000079
741.4672	0.001189
742.1695	0.002183
742.8718	0.000026
743.5742	0.000851
744.2767	0.000745
744.9792	0.001591
745.6819	-0.000756
746.3846	0.001063
747.0874	0.000365
747.7903	-0.000143
748.4933	0.000005
749.1964	0.001105
749.8995	-0.000946
750.6028	0.001464
751.3061	-0.000058
752.0095	0.000915
752.7130	0.000936
753.4166	-0.001094
754.1202	-0.000291
754.8239	-0.000862
755.5278	-0.000735
756.2317	-0.000523
756.9356	0.002289
757.6397	0.001084
758.3438	0.000428
759.0481	0.000005
759.7524	-0.001707
760.4568	-0.000544
761.1613	0.000872
761.8658	0.000492
762.5705	0.000344
763.2752	0.000132
763.9800	0.000428
764.6849	0.000005
765.3898	0.001866
766.0949	-0.000270
766.8000	-0.001517
767.5052	0.000470
768.2105	0.001359
768.9159	-0.000523
769.6214	0.002014
770.3269	0.000576
771.0325	-0.000143
771.7382	-0.001200
772.4440	0.000048
773.1499	-0.001327
773.8558	-0.000185
774.5618	0.000555
775.2679	0.001232
775.9741	-0.002469
776.6804	0.000851
777.3868	0.000259
778.0932	-0.000418
778.7997	-0.001094
779.5063	-0.000227
780.2130	-0.000777
780.9197	0.000280
781.6265	0.000365
782.3335	-0.000100
783.0405	-0.001263
783.7475	0.000153
784.4547	0.000111
785.1619	0.000048
785.8692	-0.001390
786.5766	0.001824
787.2841	0.000217
787.9917	0.000788
788.6993	-0.001961
789.4070	0.001929
790.1148	-0.000439
790.8227	0.001274
791.5306	0.001718
792.2387	0.000111
792.9468	-0.000693
793.6550	-0.000100
794.3632	0.000767
795.0716	-0.000904
795.7800	-0.000037
796.4885	-0.000354
797.1971	-0.000248
797.9058	-0.000016
798.6145	0.000174
799.3233	-0.000883
800.0322	-0.002067
800.7412	0.000915
801.4503	0.001063
802.1594	0.000872
802.8686	-0.000206
803.5779	-0.000544
804.2873	-0.000439
804.9968	0.001718
805.7063	0.000174
806.4159	-0.000523
807.1256	-0.000270
807.8354	-0.000079
808.5452	-0.001094
809.2551	0.001972
809.9651	0.001211
810.6752	0.001507
811.3853	0.000555
812.0956	0.000196
812.8059	-0.000396
813.5163	0.000005
814.2267	0.000026
814.9373	-0.000883
815.6479	0.000830
816.3586	0.000407
817.0694	-0.000333
817.7802	0.000999
818.4912	-0.000164
819.2022	0.000957
819.9133	-0.000037
820.6244	-0.000862
821.3357	0.000851
822.0470	-0.000671
822.7584	-0.001369
823.4698	-0.000502
824.1814	0.001866
824.8930	0.000872
825.6047	0.000153
826.3165	0.000407
827.0283	-0.001221
827.7402	0.001359
828.4522	0.001337
829.1643	-0.002046
829.8765	0.001126
830.5887	-0.000248
831.3010	0.000153
832.0134	0.001359
832.7259	-0.000312
833.4384	-0.000418
834.1510	0.000259
834.8637	-0.000587
835.5765	-0.000693
836.2893	-0.000798
837.0022	0.001591
837.7152	0.001612
838.4283	0.001063
839.1414	0.000407
839.8546	0.000872
840.5679	-0.000608
841.2813	0.000090
841.9947	-0.000481
842.7082	0.001760
843.4218	0.000069
844.1355	-0.000481
844.8492	-0.000418
845.5631	-0.000735
846.2770	-0.000439
846.9909	0.001591
847.7050	0.002543
848.4191	-0.000016
849.1333	-0.000587
849.8475	0.001041
850.5619	-0.000714
851.2763	0.000005
851.9908	-0.000016
852.7053	0.000174
853.4200	-0.001010
854.1347	-0.000481
854.8495	-0.000481
855.5643	-0.000079
856.2792	-0.001686
856.9942	0.002437
857.7093	0.001105
858.4245	0.001485
859.1397	-0.001158
859.8550	0.001612
860.5704	-0.000862
861.2858	-0.000354
862.0013	0.001084
862.7169	-0.000248
863.4326	0.001041
864.1483	0.000576
864.8642	0.000322
865.5800	0.000301
866.2960	0.000809
867.0120	0.000534
867.7281	-0.001433
868.4443	0.000217
869.1606	-0.001221
869.8769	0.001887
870.5933	0.000153
871.3097	0.001739
872.0263	-0.000418
872.7429	0.000026
873.4596	-0.000079
874.1763	-0.001031
874.8932	-0.000693
875.6101	-0.000016
876.3270	-0.001559
877.0441	-0.001242
877.7612	0.002056
878.4784	-0.000756
879.1957	0.001739
879.9130	0.000386
880.6304	-0.001602
881.3479	0.001126
882.0654	-0.000375
882.7831	-0.001433
883.5007	0.001485
884.2185	-0.001158
884.9363	0.001485
885.6542	-0.000587
886.3722	0.000111
887.0903	-0.000164
887.8084	-0.000079
888.5266	-0.000566
889.2448	-0.000841
889.9632	-0.001411
890.6816	-0.000354
891.4001	0.002395
892.1186	0.000322
892.8372	0.000767
893.5559	-0.000735
894.2747	-0.000354
894.9935	0.000809
895.7124	0.001020
896.4314	0.001337
897.1504	0.000851
897.8695	0.001041
898.5887	0.000048
899.3079	0.000788
900.0272	-0.000523
900.7466	0.001232
901.4661	0.000111
902.1856	0.000386
902.9052	-0.001327
903.6249	-0.000058
904.3446	0.001020
905.0644	0.000280
905.7843	-0.000777
906.5043	-0.000481
907.2243	-0.000037
907.9444	-0.000946
908.6645	0.000111
909.3847	0.002923
910.1050	0.000407
910.8254	0.001401
911.5458	-0.001094
912.2663	-0.000143
912.9869	-0.000016
913.7075	0.000872
914.4283	-0.000777
915.1490	-0.000418
915.8699	-0.000100
916.5908	0.002014
917.3118	-0.001834
918.0328	0.002099
918.7539	0.001147
919.4751	0.000576
920.1964	-0.001094
920.9177	-0.000375
921.6391	-0.000946
922.3606	0.000238
923.0821	-0.000777
923.8037	-0.000312
924.5254	0.000830
925.2471	0.001316
925.9689	-0.000714
926.6908	0.000597
927.4127	-0.000016
928.1347	0.000809
928.8568	0.000872
929.5789	-0.001031
930.3011	-0.000185
931.0234	0.000978
931.7457	0.001041
932.4681	0.001570
933.1906	0.000259
933.9131	0.000344
934.6358	-0.000164
935.3584	-0.000460
936.0812	-0.000037
936.8040	0.001295
937.5269	0.000111
938.2498	0.001295
938.9728	0.001401
939.6959	-0.000735
940.4190	-0.002046
941.1422	0.001316
941.8655	0.001676
942.5889	0.000872
943.3123	0.001041
944.0357	-0.000544
944.7593	-0.001707
945.4829	-0.000354
946.2066	0.001211
946.9303	0.000196
947.6541	-0.000270
948.3780	0.001084
949.1019	0.000090
949.8259	0.000365
950.5500	0.002648
951.2741	0.000682
951.9983	0.000936
952.7226	-0.000735
953.4469	0.000196
954.1713	-0.000333
954.8958	-0.000185
955.6203	-0.000227
956.3449	0.000809
957.0696	-0.001750
957.7943	0.001781
958.5191	-0.000016
959.2439	-0.000058
959.9688	-0.000544
960.6938	0.000618
961.4189	-0.000523
962.1440	0.001337
962.8692	-0.000058
963.5944	-0.000714
964.3197	-0.001369
965.0451	0.001612
965.7705	0.001041
966.4960	0.001084
967.2216	0.001464
967.9472	0.001739
968.6729	-0.001517
969.3987	0.000936
970.1245	-0.000566
970.8504	0.002247
971.5763	0.000322
972.3023	-0.000777
973.0284	0.000365
973.7545	0.000999
974.4807	-0.000735
975.2070	0.001041
975.9333	-0.000333
976.6597	0.000048
977.3862	-0.000079
978.1127	-0.000523
978.8393	0.001041
979.5659	0.001591
980.2926	0.000492
981.0194	0.000090
981.7462	-0.000248
982.4731	0.001422
983.2001	-0.000270
983.9271	0.000597
984.6542	-0.000185
985.3814	0.000069
986.1086	-0.000904
986.8358	0.002141
987.5632	0.000788
988.2906	0.000449
989.0180	-0.000185
989.7456	-0.000544
990.4732	0.001168
991.2008	0.001253
991.9285	-0.000777
992.6563	-0.000100
993.3841	-0.000375
994.1120	0.001422
994.8400	-0.000270
995.5680	0.001507
996.2961	0.000851
997.0242	0.001443
997.7524	0.001295
998.4807	0.001316
999.2090	0.000957
999.9374	-0.001348
1000.67	0.000492
1001.39	-0.000185
1002.12	0.001274
1002.85	0.001189
1003.58	-0.000650
1004.31	-0.000523
1005.04	-0.000819
1005.77	0.000809
1006.5	0.000576
1007.22	-0.000608
1007.95	0.001528
1008.68	0.000069
1009.41	-0.000016
1010.14	-0.000967
1010.87	-0.001200
1011.6	0.000407
1012.33	-0.000735
1013.06	-0.002532
1013.79	0.001084
1014.52	0.000407
1015.25	-0.000481
1015.98	-0.001475
1016.71	0.000724
1017.44	0.001337
1018.17	0.000449
1018.9	0.000682
1019.63	0.001274
1020.36	0.000322
1021.09	0.001063
1021.82	-0.002046
1022.55	-0.002342
1023.03	-0.002130