File: Auto_Polymerization/Data/UV_VIS_Spectra/MRG-061-F_old spectra (lamp off or wrong integration time)/spectrum_2025-06-19_09-30-27.txt
# Wavelength (nm)	Intensity (a.u.)
197.7802	0.010561
198.3922	0.010349
199.0044	0.011089
199.6168	0.009080
200.2292	0.009524
200.8418	0.008530
201.4546	0.010391
202.0674	0.010772
202.6805	0.009122
203.2936	0.012613
203.9069	0.010582
204.5203	0.009651
205.1338	0.010836
205.7475	0.011195
206.3614	0.011809
206.9753	0.010243
207.5894	0.011491
208.2036	0.008847
208.8180	0.011238
209.4325	0.008043
210.0471	0.010666
210.6618	0.009799
211.2767	0.011513
211.8918	0.010836
212.5069	0.010582
213.1222	0.008847
213.7376	0.009630
214.3532	0.010793
214.9689	0.011089
215.5847	0.008805
216.2007	0.011893
216.8168	0.010074
217.4330	0.008572
218.0494	0.008931
218.6659	0.010561
219.2825	0.009037
219.8992	0.011216
220.5161	0.010286
221.1332	0.011724
221.7503	0.008889
222.3676	0.010286
222.9850	0.011576
223.6026	0.010434
224.2203	0.010709
224.8381	0.011153
225.4561	0.009397
226.0742	0.011915
226.6924	0.008466
227.3107	0.011682
227.9292	0.012380
228.5478	0.011661
229.1666	0.009757
229.7855	0.009355
230.4045	0.011534
231.0236	0.010793
231.6429	0.011830
232.2623	0.009566
232.8818	0.011238
233.5015	0.010476
234.1213	0.012232
234.7413	0.012274
235.3613	0.010497
235.9815	0.009735
236.6018	0.012655
237.2223	0.010836
237.8429	0.010518
238.4636	0.012845
239.0845	0.012507
239.7055	0.010539
240.3266	0.011026
240.9478	0.011386
241.5692	0.012338
242.1907	0.012338
242.8124	0.011174
243.4341	0.012592
244.0560	0.011555
244.6781	0.009862
245.3002	0.009672
245.9225	0.011534
246.5449	0.010286
247.1675	0.011661
247.7902	0.010941
248.4130	0.010751
249.0359	0.012740
249.6590	0.010264
250.2822	0.011132
250.9056	0.010793
251.5290	0.009714
252.1526	0.011407
252.7763	0.010814
253.4002	0.011216
254.0242	0.011597
254.6483	0.012126
255.2725	0.011682
255.8969	0.012232
256.5214	0.011407
257.1460	0.011936
257.7708	0.010878
258.3957	0.011491
259.0207	0.012253
259.6459	0.012465
260.2711	0.010349
260.8965	0.013078
261.5221	0.009799
262.1477	0.012232
262.7735	0.011407
263.3995	0.012041
264.0255	0.010455
264.6517	0.011470
265.2780	0.012697
265.9044	0.014115
266.5310	0.011174
267.1577	0.011555
267.7845	0.011428
268.4114	0.012634
269.0385	0.010412
269.6657	0.011449
270.2931	0.012972
270.9205	0.012380
271.5481	0.011132
272.1758	0.012465
272.8037	0.010772
273.4316	0.013057
274.0597	0.010751
274.6880	0.011703
275.3163	0.010941
275.9448	0.012190
276.5734	0.011703
277.2022	0.013438
277.8310	0.009884
278.4600	0.014305
279.0891	0.011999
279.7184	0.010963
280.3477	0.013120
280.9772	0.013332
281.6069	0.013120
282.2366	0.011745
282.8665	0.011957
283.4965	0.010772
284.1266	0.011195
284.7569	0.011830
285.3873	0.012697
286.0178	0.010476
286.6484	0.011999
287.2792	0.012126
287.9101	0.013395
288.5411	0.012740
289.1723	0.012634
289.8035	0.011111
290.4349	0.012190
291.0665	0.012613
291.6981	0.012782
292.3299	0.011724
292.9618	0.012401
293.5938	0.012232
294.2260	0.011703
294.8582	0.014051
295.4906	0.010137
296.1232	0.012359
296.7558	0.011111
297.3886	0.011470
298.0215	0.012909
298.6545	0.011936
299.2877	0.011893
299.9210	0.012930
300.5544	0.012655
301.1879	0.012718
301.8215	0.013078
302.4553	0.013395
303.0892	0.010518
303.7233	0.012845
304.3574	0.011513
304.9917	0.012718
305.6261	0.010793
306.2606	0.012084
306.8953	0.011893
307.5301	0.012063
308.1650	0.011407
308.8000	0.011470
309.4351	0.010434
310.0704	0.011322
310.7058	0.011428
311.3413	0.013163
311.9770	0.011089
312.6127	0.011470
313.2486	0.011195
313.8846	0.014453
314.5208	0.011999
315.1570	0.013163
315.7934	0.012168
316.4299	0.010751
317.0666	0.011809
317.7033	0.011978
318.3402	0.011978
318.9772	0.012317
319.6143	0.012803
320.2516	0.011470
320.8890	0.011682
321.5265	0.013967
322.1641	0.011766
322.8018	0.011661
323.4397	0.010539
324.0777	0.011957
324.7158	0.013036
325.3540	0.012740
325.9924	0.009989
326.6308	0.012528
327.2694	0.012782
327.9082	0.012443
328.5470	0.012465
329.1860	0.013290
329.8251	0.013438
330.4643	0.011809
331.1036	0.012930
331.7431	0.012422
332.3826	0.012655
333.0223	0.013078
333.6622	0.012147
334.3021	0.013438
334.9422	0.012972
335.5823	0.013332
336.2227	0.012443
336.8631	0.014051
337.5036	0.014580
338.1443	0.012401
338.7851	0.011238
339.4260	0.011428
340.0670	0.012465
340.7082	0.012718
341.3495	0.011068
341.9909	0.015638
342.6324	0.014348
343.2740	0.013078
343.9158	0.013099
344.5577	0.015342
345.1997	0.012803
345.8418	0.012486
346.4840	0.012422
347.1264	0.013586
347.7689	0.013607
348.4115	0.012084
349.0542	0.014051
349.6971	0.013671
350.3400	0.015702
350.9831	0.014390
351.6263	0.013776
352.2696	0.012845
352.9131	0.010201
353.5566	0.013988
354.2003	0.013417
354.8441	0.014411
355.4881	0.014517
356.1321	0.012486
356.7763	0.014115
357.4206	0.012274
358.0650	0.013269
358.7095	0.013184
359.3541	0.011153
359.9989	0.014284
360.6438	0.015532
361.2888	0.012740
361.9339	0.012338
362.5791	0.016273
363.2245	0.013120
363.8699	0.013692
364.5155	0.014432
365.1612	0.013501
365.8071	0.014559
366.4530	0.012613
367.0991	0.015088
367.7453	0.015067
368.3916	0.013247
369.0380	0.013544
369.6845	0.013946
370.3312	0.015257
370.9780	0.015490
371.6249	0.014496
372.2719	0.014242
372.9190	0.015659
373.5663	0.014411
374.2136	0.013797
374.8611	0.012740
375.5087	0.015405
376.1564	0.017923
376.8043	0.015257
377.4522	0.015003
378.1003	0.014771
378.7485	0.016738
379.3968	0.017394
380.0452	0.015659
380.6938	0.017479
381.3424	0.016146
381.9912	0.018685
382.6401	0.019235
383.2891	0.019827
383.9382	0.022725
384.5875	0.024016
385.2368	0.029813
385.8863	0.034383
386.5359	0.040793
387.1856	0.052662
387.8355	0.063853
388.4854	0.076611
389.1355	0.092393
389.7856	0.105785
390.4359	0.128592
391.0863	0.153302
391.7369	0.179134
392.3875	0.214867
393.0383	0.265219
393.6891	0.281594
394.3401	0.304210
394.9912	0.342948
395.6425	0.368780
396.2938	0.408130
396.9453	0.448920
397.5968	0.505598
398.2485	0.562106
398.9003	0.610046
399.5522	0.614807
400.2043	0.633488
400.8564	0.654136
401.5087	0.690694
402.1610	0.699220
402.8135	0.723614
403.4661	0.752809
404.1189	0.780545
404.7717	0.819494
405.4246	0.867583
406.0777	0.881694
406.7309	0.843168
407.3842	0.830284
408.0376	0.845728
408.6911	0.910466
409.3448	0.899973
409.9985	0.922483
410.6524	0.899359
411.3064	0.909366
411.9605	0.921447
412.6147	0.974951
413.2690	0.987899
413.9234	0.984281
414.5780	0.970402
415.2326	0.975057
415.8874	0.968054
416.5423	0.987793
417.1973	0.976390
417.8524	0.981023
418.5077	0.991918
419.1630	1.000000
419.8185	1.000000
420.4741	1.000000
421.1298	1.000000
421.7856	1.000000
422.4415	1.000000
423.0975	1.000000
423.7536	1.000000
424.4099	1.000000
425.0663	1.000000
425.7228	1.000000
426.3793	1.000000
427.0361	1.000000
427.6929	1.000000
428.3498	1.000000
429.0068	1.000000
429.6640	1.000000
430.3213	1.000000
430.9787	1.000000
431.6362	1.000000
432.2938	0.955635
432.9515	0.956418
433.6093	1.000000
434.2673	1.000000
434.9253	1.000000
435.5835	1.000000
436.2418	1.000000
436.9001	1.000000
437.5586	1.000000
438.2173	1.000000
438.8760	1.000000
439.5348	1.000000
440.1938	0.978759
440.8528	1.000000
441.5120	1.000000
442.1713	1.000000
442.8307	1.000000
443.4902	1.000000
444.1498	1.000000
444.8095	1.000000
445.4694	1.000000
446.1293	1.000000
446.7894	1.000000
447.4496	0.990226
448.1098	0.953943
448.7702	0.937250
449.4307	0.926439
450.0914	0.907081
450.7521	0.886750
451.4129	0.838175
452.0739	0.837456
452.7349	0.804537
453.3961	0.767746
454.0574	0.747774
454.7188	0.710687
455.3803	0.752556
456.0419	0.719277
456.7036	0.693783
457.3654	0.692408
458.0274	0.722260
458.6894	0.722090
459.3516	0.698713
460.0138	0.702098
460.6762	0.653015
461.3387	0.641844
462.0013	0.586584
462.6640	0.546450
463.3268	0.561239
463.9897	0.573573
464.6528	0.600716
465.3159	0.599426
465.9792	0.605646
466.6425	0.520471
467.3060	0.473038
467.9696	0.459392
468.6333	0.427742
469.2970	0.393956
469.9610	0.360571
470.6250	0.351431
471.2891	0.327609
471.9533	0.327102
472.6177	0.330656
473.2821	0.343561
473.9467	0.327419
474.6113	0.313265
475.2761	0.324605
475.9410	0.309267
476.6060	0.300931
477.2711	0.276432
477.9363	0.281298
478.6016	0.271862
479.2670	0.264331
479.9325	0.260544
480.5982	0.262215
481.2639	0.251552
481.9298	0.251447
482.5957	0.231729
483.2618	0.223774
483.9280	0.217300
484.5943	0.238351
485.2606	0.234120
485.9271	0.672563
486.5937	0.473123
487.2605	0.362369
487.9273	0.210065
488.5942	0.181186
489.2612	0.174755
489.9284	0.170058
490.5956	0.161194
491.2630	0.157576
491.9304	0.148881
492.5980	0.145136
493.2657	0.143190
493.9334	0.142365
494.6013	0.139128
495.2693	0.128740
495.9374	0.129142
496.6056	0.139381
497.2739	0.131490
497.9423	0.116681
498.6109	0.117040
499.2795	0.119093
499.9482	0.124339
500.6171	0.114840
501.2860	0.118035
501.9551	0.115115
502.6242	0.120616
503.2935	0.115708
503.9628	0.111074
504.6323	0.107160
505.3019	0.108134
505.9716	0.104029
506.6414	0.109234
507.3113	0.098254
507.9813	0.104050
508.6514	0.102400
509.3216	0.102442
509.9919	0.100475
510.6623	0.098740
511.3329	0.100665
512.0035	0.103225
512.6742	0.098804
513.3451	0.097598
514.0160	0.101871
514.6871	0.098550
515.3582	0.097302
516.0295	0.102612
516.7008	0.101152
517.3723	0.101744
518.0439	0.100623
518.7155	0.103098
519.3873	0.108197
520.0592	0.107541
520.7312	0.101533
521.4033	0.110249
522.0755	0.107308
522.7478	0.108768
523.4202	0.113211
524.0927	0.123430
524.7653	0.120891
525.4380	0.123197
526.1108	0.133987
526.7837	0.135531
527.4568	0.145221
528.1299	0.142047
528.8031	0.159755
529.4765	0.165510
530.1499	0.168027
530.8234	0.170566
531.4971	0.173655
532.1708	0.181377
532.8447	0.195298
533.5186	0.227138
534.1927	0.243894
534.8668	0.261729
535.5411	0.270360
536.2155	0.266489
536.8899	0.253520
537.5645	0.273661
538.2392	0.307236
538.9139	0.325303
539.5888	0.351368
540.2638	0.344746
540.9389	0.372355
541.6140	0.391671
542.2893	0.417757
542.9647	0.437961
543.6402	0.457530
544.3158	0.494258
544.9915	0.515372
545.6673	0.500774
546.3432	0.499505
547.0192	0.529293
547.6953	0.605456
548.3715	0.678678
549.0478	0.650603
549.7242	0.625998
550.4007	0.632155
551.0773	0.618276
551.7540	0.655596
552.4308	0.775701
553.1077	0.757527
553.7847	0.808260
554.4618	0.789452
555.1390	0.793578
555.8163	0.886560
556.4937	0.911968
557.1712	0.870015
557.8488	0.901665
558.5266	0.878626
559.2044	0.868915
559.8823	0.923922
560.5603	1.000000
561.2384	1.000000
561.9166	1.000000
562.5949	1.000000
563.2733	1.000000
563.9519	1.000000
564.6305	1.000000
565.3092	1.000000
565.9880	1.000000
566.6669	1.000000
567.3459	1.000000
568.0250	1.000000
568.7043	1.000000
569.3836	1.000000
570.0630	1.000000
570.7425	1.000000
571.4221	1.000000
572.1018	1.000000
572.7816	1.000000
573.4615	1.000000
574.1415	1.000000
574.8216	1.000000
575.5018	1.000000
576.1821	1.000000
576.8626	1.000000
577.5431	1.000000
578.2237	1.000000
578.9044	1.000000
579.5851	1.000000
580.2660	1.000000
580.9470	1.000000
581.6281	1.000000
582.3093	1.000000
582.9906	1.000000
583.6720	1.000000
584.3535	1.000000
585.0351	1.000000
585.7167	1.000000
586.3985	1.000000
587.0804	1.000000
587.7624	1.000000
588.4445	1.000000
589.1266	1.000000
589.8089	1.000000
590.4913	1.000000
591.1737	1.000000
591.8563	1.000000
592.5389	1.000000
593.2217	1.000000
593.9046	1.000000
594.5875	1.000000
595.2705	1.000000
595.9537	1.000000
596.6369	1.000000
597.3203	1.000000
598.0037	1.000000
598.6872	1.000000
599.3709	1.000000
600.0546	1.000000
600.7384	1.000000
601.4223	1.000000
602.1064	1.000000
602.7905	1.000000
603.4747	1.000000
604.1590	1.000000
604.8434	1.000000
605.5279	1.000000
606.2125	1.000000
606.8972	1.000000
607.5819	1.000000
608.2668	1.000000
608.9518	1.000000
609.6369	1.000000
610.3220	1.000000
611.0073	1.000000
611.6927	1.000000
612.3781	1.000000
613.0637	1.000000
613.7493	1.000000
614.4351	1.000000
615.1209	1.000000
615.8068	1.000000
616.4929	1.000000
617.1790	1.000000
617.8652	1.000000
618.5515	1.000000
619.2379	1.000000
619.9244	1.000000
620.6110	1.000000
621.2977	1.000000
621.9845	1.000000
622.6714	1.000000
623.3584	1.000000
624.0454	1.000000
624.7326	1.000000
625.4199	1.000000
626.1072	1.000000
626.7947	1.000000
627.4822	1.000000
628.1698	1.000000
628.8576	1.000000
629.5454	1.000000
630.2333	1.000000
630.9213	1.000000
631.6094	1.000000
632.2976	1.000000
632.9859	1.000000
633.6743	1.000000
634.3628	1.000000
635.0514	1.000000
635.7400	1.000000
636.4288	1.000000
637.1177	1.000000
637.8066	1.000000
638.4957	1.000000
639.1848	1.000000
639.8740	1.000000
640.5633	1.000000
641.2528	1.000000
641.9423	1.000000
642.6319	1.000000
643.3216	1.000000
644.0113	1.000000
644.7012	1.000000
645.3912	1.000000
646.0812	1.000000
646.7714	1.000000
647.4616	1.000000
648.1520	1.000000
648.8424	1.000000
649.5329	1.000000
650.2236	1.000000
650.9143	1.000000
651.6051	1.000000
652.2960	1.000000
652.9870	1.000000
653.6780	1.000000
654.3692	1.000000
655.0605	1.000000
655.7518	1.000000
656.4433	1.000000
657.1348	1.000000
657.8264	1.000000
658.5181	1.000000
659.2099	1.000000
659.9018	1.000000
660.5938	1.000000
661.2859	1.000000
661.9781	1.000000
662.6704	1.000000
663.3627	1.000000
664.0552	1.000000
664.7477	1.000000
665.4403	1.000000
666.1330	1.000000
666.8259	1.000000
667.5188	1.000000
668.2117	1.000000
668.9048	1.000000
669.5980	1.000000
670.2913	1.000000
670.9846	1.000000
671.6781	1.000000
672.3716	1.000000
673.0652	1.000000
673.7589	1.000000
674.4527	1.000000
675.1466	1.000000
675.8406	1.000000
676.5347	1.000000
677.2288	1.000000
677.9231	1.000000
678.6174	1.000000
679.3119	1.000000
680.0064	1.000000
680.7010	1.000000
681.3957	1.000000
682.0905	1.000000
682.7854	1.000000
683.4803	1.000000
684.1754	1.000000
684.8705	1.000000
685.5658	1.000000
686.2611	1.000000
686.9565	1.000000
687.6520	1.000000
688.3476	1.000000
689.0433	1.000000
689.7390	1.000000
690.4349	1.000000
691.1308	1.000000
691.8269	1.000000
692.5230	1.000000
693.2192	1.000000
693.9155	1.000000
694.6119	1.000000
695.3083	1.000000
696.0049	1.000000
696.7016	1.000000
697.3983	1.000000
698.0951	1.000000
698.7920	1.000000
699.4890	1.000000
700.1861	1.000000
700.8833	1.000000
701.5806	1.000000
702.2779	1.000000
702.9753	1.000000
703.6729	1.000000
704.3705	1.000000
705.0682	1.000000
705.7660	1.000000
706.4638	1.000000
707.1618	1.000000
707.8599	1.000000
708.5580	1.000000
709.2562	1.000000
709.9545	1.000000
710.6529	1.000000
711.3514	1.000000
712.0500	1.000000
712.7486	1.000000
713.4474	1.000000
714.1462	1.000000
714.8451	1.000000
715.5441	1.000000
716.2432	1.000000
716.9424	1.000000
717.6416	1.000000
718.3410	1.000000
719.0404	1.000000
719.7399	1.000000
720.4395	1.000000
721.1392	1.000000
721.8390	1.000000
722.5388	1.000000
723.2388	1.000000
723.9388	1.000000
724.6389	1.000000
725.3391	1.000000
726.0394	1.000000
726.7398	1.000000
727.4403	1.000000
728.1408	1.000000
728.8414	1.000000
729.5421	1.000000
730.2429	1.000000
730.9438	1.000000
731.6448	1.000000
732.3458	1.000000
733.0470	1.000000
733.7482	1.000000
734.4495	1.000000
735.1509	1.000000
735.8524	1.000000
736.5539	1.000000
737.2556	1.000000
737.9573	1.000000
738.6591	1.000000
739.3610	1.000000
740.0630	1.000000
740.7651	1.000000
741.4672	1.000000
742.1695	1.000000
742.8718	1.000000
743.5742	1.000000
744.2767	1.000000
744.9792	1.000000
745.6819	1.000000
746.3846	1.000000
747.0874	1.000000
747.7903	1.000000
748.4933	1.000000
749.1964	1.000000
749.8995	1.000000
750.6028	1.000000
751.3061	1.000000
752.0095	1.000000
752.7130	1.000000
753.4166	1.000000
754.1202	1.000000
754.8239	1.000000
755.5278	1.000000
756.2317	1.000000
756.9356	1.000000
757.6397	1.000000
758.3438	1.000000
759.0481	1.000000
759.7524	1.000000
760.4568	1.000000
761.1613	1.000000
761.8658	1.000000
762.5705	1.000000
763.2752	1.000000
763.9800	1.000000
764.6849	1.000000
765.3898	1.000000
766.0949	1.000000
766.8000	1.000000
767.5052	1.000000
768.2105	1.000000
768.9159	1.000000
769.6214	1.000000
770.3269	1.000000
771.0325	1.000000
771.7382	1.000000
772.4440	1.000000
773.1499	1.000000
773.8558	1.000000
774.5618	1.000000
775.2679	1.000000
775.9741	1.000000
776.6804	1.000000
777.3868	1.000000
778.0932	1.000000
778.7997	1.000000
779.5063	1.000000
780.2130	1.000000
780.9197	1.000000
781.6265	1.000000
782.3335	1.000000
783.0405	1.000000
783.7475	1.000000
784.4547	1.000000
785.1619	1.000000
785.8692	1.000000
786.5766	1.000000
787.2841	1.000000
787.9917	1.000000
788.6993	1.000000
789.4070	1.000000
790.1148	1.000000
790.8227	1.000000
791.5306	1.000000
792.2387	1.000000
792.9468	1.000000
793.6550	1.000000
794.3632	1.000000
795.0716	1.000000
795.7800	1.000000
796.4885	1.000000
797.1971	1.000000
797.9058	1.000000
798.6145	1.000000
799.3233	1.000000
800.0322	1.000000
800.7412	1.000000
801.4503	1.000000
802.1594	1.000000
802.8686	1.000000
803.5779	1.000000
804.2873	1.000000
804.9968	1.000000
805.7063	1.000000
806.4159	1.000000
807.1256	1.000000
807.8354	1.000000
808.5452	1.000000
809.2551	1.000000
809.9651	1.000000
810.6752	1.000000
811.3853	1.000000
812.0956	1.000000
812.8059	1.000000
813.5163	1.000000
814.2267	1.000000
814.9373	1.000000
815.6479	1.000000
816.3586	1.000000
817.0694	1.000000
817.7802	1.000000
818.4912	1.000000
819.2022	1.000000
819.9133	1.000000
820.6244	1.000000
821.3357	1.000000
822.0470	1.000000
822.7584	1.000000
823.4698	1.000000
824.1814	1.000000
824.8930	1.000000
825.6047	1.000000
826.3165	1.000000
827.0283	1.000000
827.7402	1.000000
828.4522	1.000000
829.1643	1.000000
829.8765	1.000000
830.5887	1.000000
831.3010	1.000000
832.0134	1.000000
832.7259	1.000000
833.4384	1.000000
834.1510	1.000000
834.8637	1.000000
835.5765	1.000000
836.2893	1.000000
837.0022	1.000000
837.7152	1.000000
838.4283	1.000000
839.1414	1.000000
839.8546	1.000000
840.5679	1.000000
841.2813	1.000000
841.9947	1.000000
842.7082	1.000000
843.4218	1.000000
844.1355	1.000000
844.8492	1.000000
845.5631	1.000000
846.2770	1.000000
846.9909	1.000000
847.7050	1.000000
848.4191	1.000000
849.1333	1.000000
849.8475	1.000000
850.5619	1.000000
851.2763	1.000000
851.9908	1.000000
852.7053	1.000000
853.4200	1.000000
854.1347	1.000000
854.8495	1.000000
855.5643	1.000000
856.2792	1.000000
856.9942	1.000000
857.7093	1.000000
858.4245	1.000000
859.1397	1.000000
859.8550	1.000000
860.5704	1.000000
861.2858	1.000000
862.0013	1.000000
862.7169	1.000000
863.4326	1.000000
864.1483	1.000000
864.8642	0.209388
865.5800	1.000000
866.2960	0.164240
867.0120	1.000000
867.7281	0.188866
868.4443	0.192992
869.1606	0.171666
869.8769	0.163457
870.5933	0.171433
871.3097	0.200016
872.0263	0.175241
872.7429	0.162653
873.4596	0.177632
874.1763	0.174628
874.8932	0.184296
875.6101	0.210319
876.3270	0.193394
877.0441	0.186349
877.7612	0.219691
878.4784	0.238668
879.1957	0.254091
879.9130	0.262469
880.6304	0.280663
881.3479	0.263548
882.0654	0.224070
882.7831	0.210911
883.5007	0.215312
884.2185	0.207970
884.9363	0.200819
885.6542	0.229592
886.3722	0.222589
887.0903	0.202512
887.8084	0.188951
888.5266	0.186814
889.2448	0.172597
889.9632	0.161405
890.6816	0.148902
891.4001	0.164431
892.1186	0.175284
892.8372	0.170651
893.5559	0.164875
894.2747	0.153323
894.9935	0.145644
895.7124	0.158634
896.4314	0.166440
897.1504	0.166187
897.8695	0.161130
898.5887	0.165319
899.3079	0.156984
900.0272	0.138747
900.7466	0.148521
901.4661	0.155333
902.1856	0.158951
902.9052	0.145411
903.6249	0.135023
904.3446	0.159670
905.0644	0.163690
905.7843	0.179811
906.5043	0.165912
907.2243	0.153768
907.9444	0.147104
908.6645	0.131363
909.3847	0.125482
910.1050	0.121504
910.8254	0.126222
911.5458	0.127936
912.2663	0.131554
912.9869	0.130792
913.7075	0.114988
914.4283	0.106547
915.1490	0.105933
915.8699	0.113719
916.5908	0.120193
917.3118	0.134473
918.0328	0.143147
918.7539	0.134283
919.4751	0.123747
920.1964	0.125778
920.9177	0.120087
921.6391	0.110609
922.3606	0.113444
923.0821	0.110926
923.8037	0.107308
924.5254	0.098084
925.2471	0.092689
925.9689	0.089093
926.6908	0.079001
927.4127	0.087146
928.1347	0.089643
928.8568	0.085094
929.5789	0.079192
930.3011	0.075278
931.0234	0.077563
931.7457	0.074241
932.4681	0.076441
933.1906	0.073395
933.9131	0.079044
934.6358	0.075616
935.3584	0.072337
936.0812	0.063473
936.8040	0.060934
937.5269	0.056026
938.2498	0.054841
938.9728	0.059982
939.6959	0.054735
940.4190	0.046167
941.1422	0.049129
941.8655	0.048367
942.5889	0.043501
943.3123	0.041745
944.0357	0.044622
944.7593	0.044453
945.4829	0.044961
946.2066	0.041872
946.9303	0.039820
947.6541	0.037027
948.3780	0.036117
949.1019	0.038804
949.8259	0.035567
950.5500	0.041935
951.2741	0.043226
951.9983	0.046294
952.7226	0.050250
953.4469	0.049996
954.1713	0.046907
954.8958	0.041512
955.6203	0.041745
956.3449	0.040454
957.0696	0.034975
957.7943	0.031780
958.5191	0.033007
959.2439	0.032859
959.9688	0.031928
960.6938	0.029072
961.4189	0.029559
962.1440	0.027443
962.8692	0.026216
963.5944	0.022937
964.3197	0.025497
965.0451	0.026216
965.7705	0.028776
966.4960	0.028353
967.2216	0.028163
967.9472	0.028374
968.6729	0.026237
969.3987	0.028078
970.1245	0.026872
970.8504	0.028141
971.5763	0.024841
972.3023	0.024545
973.0284	0.022514
973.7545	0.023635
974.4807	0.025412
975.2070	0.025391
975.9333	0.021985
976.6597	0.023551
977.3862	0.023022
978.1127	0.027147
978.8393	0.024249
979.5659	0.026110
980.2926	0.020271
981.0194	0.018769
981.7462	0.019721
982.4731	0.019213
983.2001	0.016992
983.9271	0.017944
984.6542	0.018960
985.3814	0.016992
986.1086	0.017373
986.8358	0.016125
987.5632	0.014919
988.2906	0.016632
989.0180	0.014474
989.7456	0.014326
990.4732	0.013247
991.2008	0.013924
991.9285	0.013861
992.6563	0.014496
993.3841	0.013544
994.1120	0.014644
994.8400	0.014855
995.5680	0.012465
996.2961	0.014284
997.0242	0.013269
997.7524	0.015448
998.4807	0.013586
999.2090	0.013501
999.9374	0.011893
1000.67	0.013776
1001.39	0.013417
1002.12	0.012147
1002.85	0.012486
1003.58	0.012761
1004.31	0.011915
1005.04	0.012570
1005.77	0.011999
1006.5	0.014517
1007.22	0.013120
1007.95	0.013522
1008.68	0.013374
1009.41	0.016379
1010.14	0.016590
1010.87	0.014496
1011.6	0.016569
1012.33	0.014517
1013.06	0.015067
1013.79	0.015236
1014.52	0.015405
1015.25	0.012592
1015.98	0.012613
1016.71	0.012528
1017.44	0.014623
1018.17	0.013078
1018.9	0.013057
1019.63	0.011872
1020.36	0.011555
1021.09	0.011407
1021.82	-0.001160
1022.55	-0.002239
1023.03	-0.000970