File: Auto_Polymerization/Spectra/MRG-061-F-2_spectra_while_stopped/spectrum_2025-06-19_12-45-20.txt
# Wavelength (nm)	Intensity (a.u.)
197.7802	-0.001139
198.3922	-0.000421
199.0044	-0.000125
199.6168	-0.000526
200.2292	-0.000357
200.8418	-0.000209
201.4546	0.000150
202.0674	0.000086
202.6805	-0.001054
203.2936	0.000086
203.9069	0.001163
204.5203	-0.000357
205.1338	0.000086
205.7475	0.000171
206.3614	0.000973
206.9753	0.001480
207.5894	0.000445
208.2036	-0.000252
208.8180	0.000487
209.4325	-0.002427
210.0471	-0.000442
210.6618	0.000403
211.2767	0.000445
211.8918	-0.000780
212.5069	-0.000019
213.1222	0.000171
213.7376	0.000213
214.3532	-0.001033
214.9689	-0.000040
215.5847	-0.000780
216.2007	-0.000146
216.8168	-0.000526
217.4330	-0.000885
218.0494	0.001311
218.6659	0.001227
219.2825	0.000150
219.8992	0.000931
220.5161	0.000509
221.1332	0.000002
221.7503	-0.000252
222.3676	-0.000019
222.9850	0.000107
223.6026	0.000297
224.2203	-0.001139
224.8381	0.000044
225.4561	0.000002
226.0742	0.000150
226.6924	-0.000104
227.3107	0.000678
227.9292	-0.000378
228.5478	0.000551
229.1666	0.000572
229.7855	-0.000653
230.4045	0.000276
231.0236	-0.000083
231.6429	0.000424
232.2623	-0.000421
232.8818	-0.000336
233.5015	0.000530
234.1213	-0.000083
234.7413	0.000635
235.3613	-0.000273
235.9815	0.001374
236.6018	-0.001075
237.2223	0.001142
237.8429	-0.000970
238.4636	-0.000949
239.0845	-0.000062
239.7055	0.000319
240.3266	0.000171
240.9478	0.000340
241.5692	-0.000822
242.1907	-0.000019
242.8124	0.001163
243.4341	-0.000949
244.0560	0.000762
244.6781	0.000846
245.3002	-0.000632
245.9225	0.000445
246.5449	0.000952
247.1675	0.000023
247.7902	0.000551
248.4130	0.000614
249.0359	-0.001202
249.6590	0.000255
250.2822	-0.000357
250.9056	0.000846
251.5290	-0.000864
252.1526	0.001860
252.7763	-0.001645
253.4002	0.000783
254.0242	-0.000231
254.6483	0.000783
255.2725	-0.000104
255.8969	0.001607
256.5214	-0.000695
257.1460	0.000044
257.7708	-0.000759
258.3957	0.000635
259.0207	0.000044
259.6459	0.001628
260.2711	-0.000146
260.8965	0.001058
261.5221	-0.000484
262.1477	0.000551
262.7735	0.000572
263.3995	0.001079
264.0255	0.001058
264.6517	-0.001413
265.2780	-0.000146
265.9044	-0.000378
266.5310	0.000255
267.1577	0.000551
267.7845	0.000931
268.4114	0.000635
269.0385	0.000403
269.6657	-0.000273
270.2931	0.000466
270.9205	-0.000125
271.5481	0.000804
272.1758	0.000255
272.8037	-0.000273
273.4316	0.001353
274.0597	0.001374
274.6880	-0.000505
275.3163	-0.001540
275.9448	-0.000188
276.5734	0.000509
277.2022	-0.000125
277.8310	-0.001751
278.4600	-0.000083
279.0891	0.000023
279.7184	0.001902
280.3477	0.000931
280.9772	0.001163
281.6069	-0.000019
282.2366	0.001058
282.8665	-0.001392
283.4965	0.000234
284.1266	0.000255
284.7569	-0.000273
285.3873	0.000276
286.0178	0.000530
286.6484	-0.000294
287.2792	-0.000083
287.9101	-0.000568
288.5411	0.000931
289.1723	0.000319
289.8035	-0.001033
290.4349	-0.000399
291.0665	0.000656
291.6981	-0.001371
292.3299	-0.000188
292.9618	-0.000336
293.5938	0.000846
294.2260	-0.000505
294.8582	0.000192
295.4906	0.000319
296.1232	0.000340
296.7558	-0.001730
297.3886	-0.000294
298.0215	-0.000843
298.6545	-0.000315
299.2877	0.000255
299.9210	-0.000336
300.5544	0.000107
301.1879	0.000150
301.8215	0.001248
302.4553	-0.000399
303.0892	0.000804
303.7233	0.001184
304.3574	0.000319
304.9917	-0.000125
305.6261	0.000002
306.2606	-0.000590
306.8953	0.000551
307.5301	0.001691
308.1650	-0.000209
308.8000	-0.000336
309.4351	-0.000970
310.0704	0.000234
310.7058	-0.000526
311.3413	0.000086
311.9770	-0.001667
312.6127	0.002092
313.2486	-0.000991
313.8846	0.000783
314.5208	-0.001244
315.1570	0.000593
315.7934	0.000340
316.4299	-0.000273
317.0666	-0.000716
317.7033	0.001079
318.3402	0.000150
318.9772	-0.000991
319.6143	0.000002
320.2516	0.000720
320.8890	-0.000188
321.5265	0.001184
322.1641	0.000403
322.8018	0.001353
323.4397	-0.000505
324.0777	0.001649
324.7158	-0.000083
325.3540	-0.000949
325.9924	0.000403
326.6308	-0.000104
327.2694	-0.000125
327.9082	0.000973
328.5470	-0.000780
329.1860	-0.000062
329.8251	0.000044
330.4643	0.000382
331.1036	-0.000463
331.7431	0.000952
332.3826	-0.000421
333.0223	-0.000674
333.6622	-0.000104
334.3021	0.000910
334.9422	-0.000780
335.5823	-0.000927
336.2227	-0.000695
336.8631	0.000868
337.5036	0.000192
338.1443	-0.000463
338.7851	-0.000188
339.4260	0.000171
340.0670	0.000255
340.7082	-0.000632
341.3495	0.000276
341.9909	-0.001265
342.6324	-0.000062
343.2740	0.000150
343.9158	-0.000568
344.5577	0.001417
345.1997	-0.001730
345.8418	0.001311
346.4840	-0.001413
347.1264	0.000551
347.7689	-0.000906
348.4115	0.001269
349.0542	-0.000463
349.6971	0.000551
350.3400	-0.001286
350.9831	-0.000019
351.6263	0.000551
352.2696	0.001121
352.9131	0.000572
353.5566	0.000297
354.2003	-0.000822
354.8441	0.000720
355.4881	0.000593
356.1321	0.000931
356.7763	-0.000463
357.4206	0.000994
358.0650	-0.000209
358.7095	-0.001160
359.3541	-0.001329
359.9989	0.001374
360.6438	-0.000083
361.2888	-0.000653
361.9339	0.000720
362.5791	0.000952
363.2245	0.000509
363.8699	0.001206
364.5155	-0.000357
365.1612	-0.001160
365.8071	-0.000505
366.4530	-0.000040
367.0991	-0.000611
367.7453	-0.001160
368.3916	0.001100
369.0380	-0.000231
369.6845	-0.001265
370.3312	0.000065
370.9780	0.000065
371.6249	0.002240
372.2719	0.000551
372.9190	0.001079
373.5663	0.000086
374.2136	0.000445
374.8611	0.001248
375.5087	0.000530
376.1564	-0.001434
376.8043	0.000931
377.4522	-0.000273
378.1003	-0.001392
378.7485	-0.000442
379.3968	-0.000632
380.0452	0.000361
380.6938	-0.000104
381.3424	-0.000864
381.9912	-0.000590
382.6401	0.000192
383.2891	0.000297
383.9382	-0.000083
384.5875	-0.000040
385.2368	-0.000716
385.8863	0.001142
386.5359	-0.001033
387.1856	0.001522
387.8355	-0.001033
388.4854	0.000783
389.1355	0.000445
389.7856	0.001121
390.4359	-0.001308
391.0863	0.000086
391.7369	0.000889
392.3875	0.001881
393.0383	0.001459
393.6891	0.000741
394.3401	0.001332
394.9912	0.000931
395.6425	0.002430
396.2938	0.002325
396.9453	0.002494
397.5968	0.004099
398.2485	0.003001
398.9003	0.003423
399.5522	0.002811
400.2043	0.003465
400.8564	0.004838
401.5087	0.005324
402.1610	0.005493
402.8135	0.004669
403.4661	0.005007
404.1189	0.006591
404.7717	0.006612
405.4246	0.007351
406.0777	0.006886
406.7309	0.007224
407.3842	0.006337
408.0376	0.008048
408.6911	0.007330
409.3448	0.008217
409.9985	0.009632
410.6524	0.008893
411.3064	0.009252
411.9605	0.009167
412.6147	0.010286
413.2690	0.010223
413.9234	0.010519
414.5780	0.009484
415.2326	0.008660
415.8874	0.011321
416.5423	0.011131
417.1973	0.010857
417.8524	0.013898
418.5077	0.011300
419.1630	0.010160
419.8185	0.015862
420.4741	0.014003
421.1298	0.014785
421.7856	0.017002
422.4415	0.016706
423.0975	0.018333
423.7536	0.018333
424.4099	0.015841
425.0663	0.018544
425.7228	0.016981
426.3793	0.016390
427.0361	0.015819
427.6929	0.016136
428.3498	0.017952
429.0068	0.016622
429.6640	0.017762
430.3213	0.021838
430.9787	0.020508
431.6362	0.020803
432.2938	0.019663
432.9515	0.018544
433.6093	0.019452
434.2673	0.021162
434.9253	0.019747
435.5835	0.019072
436.2418	0.019853
436.9001	0.023338
437.5586	0.020634
438.2173	0.018818
438.8760	0.020170
439.5348	0.020719
440.1938	0.020719
440.8528	0.020001
441.5120	0.022979
442.1713	0.023866
442.8307	0.023528
443.4902	0.022007
444.1498	0.025196
444.8095	0.025639
445.4694	0.023401
446.1293	0.021268
446.7894	0.023295
447.4496	0.021078
448.1098	0.021859
448.7702	0.019072
449.4307	0.021585
450.0914	0.020571
450.7521	0.019410
451.4129	0.018966
452.0739	0.018354
452.7349	0.019642
453.3961	0.017319
454.0574	0.016770
454.7188	0.015883
455.3803	0.017657
456.0419	0.018692
456.7036	0.017298
457.3654	0.014848
458.0274	0.015862
458.6894	0.016495
459.3516	0.017720
460.0138	0.015714
460.6762	0.016263
461.3387	0.016474
462.0013	0.016073
462.6640	0.014130
463.3268	0.012229
463.9897	0.013602
464.6528	0.014362
465.3159	0.013623
465.9792	0.016601
466.6425	0.013074
467.3060	0.011638
467.9696	0.011068
468.6333	0.010054
469.2970	0.009273
469.9610	0.008724
470.6250	0.009505
471.2891	0.006907
471.9533	0.007541
472.6177	0.008787
473.2821	0.008787
473.9467	0.009019
474.6113	0.008322
475.2761	0.008829
475.9410	0.008132
476.6060	0.008048
477.2711	0.006527
477.9363	0.005978
478.6016	0.007140
479.2670	0.006105
479.9325	0.006443
480.5982	0.006802
481.2639	0.006633
481.9298	0.006696
482.5957	0.006950
483.2618	0.006063
483.9280	0.005999
484.5943	0.005260
485.2606	0.005134
485.9271	0.011089
486.5937	0.016284
487.2605	0.010075
487.9273	0.005471
488.5942	0.005302
489.2612	0.004880
489.9284	0.004796
490.5956	0.003043
491.2630	0.003993
491.9304	0.004120
492.5980	0.003085
493.2657	0.002832
493.9334	0.003381
494.6013	0.003486
495.2693	0.002557
495.9374	0.003993
496.6056	0.004204
497.2739	0.003043
497.9423	0.003634
498.6109	0.004183
499.2795	0.003486
499.9482	0.001649
500.6171	0.002515
501.2860	0.004500
501.9551	0.003697
502.6242	0.003296
503.2935	0.003402
503.9628	0.003951
504.6323	0.002557
505.3019	0.003444
505.9716	0.001839
506.6414	0.003106
507.3113	0.003423
507.9813	0.003402
508.6514	0.003022
509.3216	0.003212
509.9919	0.002409
510.6623	0.003170
511.3329	0.002346
512.0035	0.003148
512.6742	0.001163
513.3451	0.001121
514.0160	0.001543
514.6871	0.003064
515.3582	0.002979
516.0295	0.001649
516.7008	0.003085
517.3723	0.004479
518.0439	0.003317
518.7155	0.003761
519.3873	0.002979
520.0592	0.001670
520.7312	0.002916
521.4033	0.003338
522.0755	0.001839
522.7478	0.003296
523.4202	0.003296
524.0927	0.002789
524.7653	0.004268
525.4380	0.002599
526.1108	0.004204
526.7837	0.003423
527.4568	0.004901
528.1299	0.003845
528.8031	0.004627
529.4765	0.004711
530.1499	0.004817
530.8234	0.004563
531.4971	0.005281
532.1708	0.004711
532.8447	0.005366
533.5186	0.005640
534.1927	0.006527
534.8668	0.008956
535.5411	0.007794
536.2155	0.005788
536.8899	0.007076
537.5645	0.006105
538.2392	0.007393
538.9139	0.008090
539.5888	0.008808
540.2638	0.008871
540.9389	0.010434
541.6140	0.010793
542.2893	0.011575
542.9647	0.011195
543.6402	0.011701
544.3158	0.012166
544.9915	0.013834
545.6673	0.013475
546.3432	0.013792
547.0192	0.014088
547.6953	0.015228
548.3715	0.018311
549.0478	0.017002
549.7242	0.017847
550.4007	0.015650
551.0773	0.017002
551.7540	0.015650
552.4308	0.021015
553.1077	0.020761
553.7847	0.021374
554.4618	0.022429
555.1390	0.022577
555.8163	0.022789
556.4937	0.026167
557.1712	0.022620
557.8488	0.025386
558.5266	0.024541
559.2044	0.022852
559.8823	0.023422
560.5603	0.028955
561.2384	0.031257
561.9166	0.034636
562.5949	0.031553
563.2733	0.031553
563.9519	0.033855
564.6305	0.035819
565.3092	0.038817
565.9880	0.038120
566.6669	0.039493
567.3459	0.044393
568.0250	0.052756
568.7043	0.056219
569.3836	0.067391
570.0630	0.087791
570.7425	0.099110
571.4221	0.111570
572.1018	0.124917
572.7816	0.121116
573.4615	0.118877
574.1415	0.145550
574.8216	0.159593
575.5018	0.162592
576.1821	0.149858
576.8626	0.163078
577.5431	0.181324
578.2237	0.232938
578.9044	0.199571
579.5851	0.185844
580.2660	0.201387
580.9470	0.188209
581.6281	0.275808
582.3093	0.305754
582.9906	0.247742
583.6720	0.200289
584.3535	0.185421
585.0351	0.203794
585.7167	0.226581
586.3985	0.207701
587.0804	0.196910
587.7624	0.222991
588.4445	0.194523
589.1266	0.180627
589.8089	0.159762
590.4913	0.151315
591.1737	0.135519
591.8563	0.128676
592.5389	0.130661
593.2217	0.190300
593.9046	0.193320
594.5875	0.163923
595.2705	0.185949
595.9537	0.179339
596.6369	0.148506
597.3203	0.140207
598.0037	0.146035
598.6872	0.137419
599.3709	0.180289
600.0546	0.169097
600.7384	0.180775
601.4223	0.179339
602.1064	0.167154
602.7905	0.163923
603.4747	0.174672
604.1590	0.176911
604.8434	0.157249
605.5279	0.155602
606.2125	0.171969
606.8972	0.154863
607.5819	0.156278
608.2668	0.154272
608.9518	0.141242
609.6369	0.130429
610.3220	0.144747
611.0073	0.137799
611.6927	0.135392
612.3781	0.132836
613.0637	0.127071
613.7493	0.123016
614.4351	0.126121
615.1209	0.126184
615.8068	0.129605
616.4929	0.118159
617.1790	0.107832
617.8652	0.108318
618.5515	0.107431
619.2379	0.091318
619.9244	0.088023
620.6110	0.096449
621.2977	0.080040
621.9845	0.075352
622.6714	0.080273
623.3584	0.088340
624.0454	0.086651
624.7326	0.087052
625.4199	0.086798
626.1072	0.078182
626.7947	0.073135
627.4822	0.069566
628.1698	0.066715
628.8576	0.059323
629.5454	0.060253
630.2333	0.060126
630.9213	0.057676
631.6094	0.053220
632.2976	0.049271
632.9859	0.047096
633.6743	0.042935
634.3628	0.043506
635.0514	0.039007
635.7400	0.040612
636.4288	0.041521
637.1177	0.042048
637.8066	0.041077
638.4957	0.039958
639.1848	0.043358
639.8740	0.038651
640.5633	0.035830
641.2528	0.035516
641.9423	0.032390
642.6319	0.029090
643.3216	0.029056
644.0113	0.028013
644.7012	0.027065
645.3912	0.026530
646.0812	0.027114
646.7714	0.025413
647.4616	0.023361
648.1520	0.028758
648.8424	0.031922
649.5329	0.033508
650.2236	0.030441
650.9143	0.027083
651.6051	0.027932
652.2960	0.030182
652.9870	0.033197
653.6780	0.031750
654.3692	0.031316
655.0605	0.037970
655.7518	0.521391
656.4433	1.000000
657.1348	1.000000
657.8264	0.594927
658.5181	0.439692
659.2099	0.367735
659.9018	0.165762
660.5938	0.039802
661.2859	0.024659
661.9781	0.020950
662.6704	0.022157
663.3627	0.020321
664.0552	0.020657
664.7477	0.022704
665.4403	0.024537
666.1330	0.024392
666.8259	0.021297
667.5188	0.021416
668.2117	0.019610
668.9048	0.019853
669.5980	0.021817
670.2913	0.020993
670.9846	0.021416
671.6781	0.024457
672.3716	0.030602
673.0652	0.033707
673.7589	0.029905
674.4527	0.026611
675.1466	0.027054
675.8406	0.024182
676.5347	0.024562
677.2288	0.023084
677.9231	0.025872
678.6174	0.026231
679.3119	0.030856
680.0064	0.035058
680.7010	0.034214
681.3957	0.034530
682.0905	0.033094
682.7854	0.031025
683.4803	0.028723
684.1754	0.031067
684.8705	0.037571
685.5658	0.043252
686.2611	0.045364
686.9565	0.042492
687.6520	0.042196
688.3476	0.040422
689.0433	0.036853
689.7390	0.036537
690.4349	0.034446
691.1308	0.035713
691.8269	0.038501
692.5230	0.035671
693.2192	0.037635
693.9155	0.036853
694.6119	0.033559
695.3083	0.033876
696.0049	0.029441
696.7016	0.030813
697.3983	0.039282
698.0951	0.038311
698.7920	0.038332
699.4890	0.035037
700.1861	0.031130
700.8833	0.030476
701.5806	0.029969
702.2779	0.029905
702.9753	0.030180
703.6729	0.030391
704.3705	0.025597
705.0682	0.027371
705.7660	0.023570
706.4638	0.025851
707.1618	0.034573
707.8599	0.038733
708.5580	0.037740
709.2562	0.036262
709.9545	0.033348
710.6529	0.034636
711.3514	0.031257
712.0500	0.028807
712.7486	0.027941
713.4474	0.030222
714.1462	0.033939
714.8451	0.034720
715.5441	0.034678
716.2432	0.035206
716.9424	0.028871
717.6416	0.028702
718.3410	0.029715
719.0404	0.028237
719.7399	0.028533
720.4395	0.029230
721.1392	0.031827
721.8390	0.028596
722.5388	0.028849
723.2388	0.028322
723.9388	0.027097
724.6389	0.027836
725.3391	0.028533
726.0394	0.031405
726.7398	0.035819
727.4403	0.033010
728.1408	0.033812
728.8414	0.034129
729.5421	0.034404
730.2429	0.036093
730.9438	0.039747
731.6448	0.045090
732.3458	0.041880
733.0470	0.042745
733.7482	0.041795
734.4495	0.049208
735.1509	0.045998
735.8524	0.049250
736.5539	0.048468
737.2556	0.050137
737.9573	0.045237
738.6591	0.041373
739.3610	0.044372
740.0630	0.044583
740.7651	0.040634
741.4672	0.035819
742.1695	0.034298
742.8718	0.034277
743.5742	0.031299
744.2767	0.029314
744.9792	0.027963
745.6819	0.028343
746.3846	0.026526
747.0874	0.028786
747.7903	0.031278
748.4933	0.028469
749.1964	0.027118
749.8995	0.034509
750.6028	0.040950
751.3061	0.038564
752.0095	0.040929
752.7130	0.038015
753.4166	0.035988
754.1202	0.042809
754.8239	0.039578
755.5278	0.042534
756.2317	0.045322
756.9356	0.051298
757.6397	0.058331
758.3438	0.058901
759.0481	0.053051
759.7524	0.061076
760.4568	0.063188
761.1613	0.060928
761.8658	0.056388
762.5705	0.049651
763.2752	0.046885
763.9800	0.048764
764.6849	0.056029
765.3898	0.056451
766.0949	0.051573
766.8000	0.043569
767.5052	0.039493
768.2105	0.042344
768.9159	0.046568
769.6214	0.047835
770.3269	0.045406
771.0325	0.046927
771.7382	0.045596
772.4440	0.039493
773.1499	0.042344
773.8558	0.038437
774.5618	0.035840
775.2679	0.029335
775.9741	0.029293
776.6804	0.025154
777.3868	0.023591
778.0932	0.025703
778.7997	0.026336
779.5063	0.029779
780.2130	0.028512
780.9197	0.029546
781.6265	0.034171
782.3335	0.033179
783.0405	0.034256
783.7475	0.033115
784.4547	0.031025
785.1619	0.027456
785.8692	0.030602
786.5766	0.026442
787.2841	0.027435
787.9917	0.028997
788.6993	0.028153
789.4070	0.031447
790.1148	0.027244
790.8227	0.025999
791.5306	0.020613
792.2387	0.024056
792.9468	0.022936
793.6550	0.022641
794.3632	0.028765
795.0716	0.031785
795.7800	0.031553
796.4885	0.024858
797.1971	0.021015
797.9058	0.021416
798.6145	0.022134
799.3233	0.022324
800.0322	0.020381
800.7412	0.018818
801.4503	0.020318
802.1594	0.017213
802.8686	0.016326
803.5779	0.017636
804.2873	0.018586
804.9968	0.017720
805.7063	0.018649
806.4159	0.021606
807.1256	0.023401
807.8354	0.022366
808.5452	0.022303
809.2551	0.020360
809.9651	0.019579
810.6752	0.019325
811.3853	0.017150
812.0956	0.017488
812.8059	0.013855
813.5163	0.014510
814.2267	0.017889
814.9373	0.018670
815.6479	0.015650
816.3586	0.013877
817.0694	0.014130
817.7802	0.013032
818.4912	0.015291
819.2022	0.012483
819.9133	0.010878
820.6244	0.014172
821.3357	0.015946
822.0470	0.014067
822.7584	0.012546
823.4698	0.013750
824.1814	0.011659
824.8930	0.010540
825.6047	0.012250
826.3165	0.012905
827.0283	0.012124
827.7402	0.014172
828.4522	0.011152
829.1643	0.011891
829.8765	0.013095
830.5887	0.011131
831.3010	0.010033
832.0134	0.006865
832.7259	0.008745
833.4384	0.008829
834.1510	0.009991
834.8637	0.010265
835.5765	0.011110
836.2893	0.009230
837.0022	0.008344
837.7152	0.007457
838.4283	0.004986
839.1414	0.007330
839.8546	0.008597
840.5679	0.006992
841.2813	0.006612
841.9947	0.005429
842.7082	0.004838
843.4218	0.005239
844.1355	0.004690
844.8492	0.006464
845.5631	0.005725
846.2770	0.005239
846.9909	0.003888
847.7050	0.005176
848.4191	0.003845
849.1333	0.004542
849.8475	0.004606
850.5619	0.004437
851.2763	0.003381
851.9908	0.003697
852.7053	0.005830
853.4200	0.011068
854.1347	0.012229
854.8495	0.012990
855.5643	0.014299
856.2792	0.013201
856.9942	0.009927
857.7093	0.010772
858.4245	0.010012
859.1397	0.011934
859.8550	0.008871
860.5704	0.009442
861.2858	0.006021
862.0013	0.007266
862.7169	0.005134
863.4326	0.007626
864.1483	0.005640
864.8642	0.006823
865.5800	0.004247
866.2960	0.006950
867.0120	0.005471
867.7281	0.003571
868.4443	0.004796
869.1606	0.004373
869.8769	0.004099
870.5933	0.005324
871.3097	0.006232
872.0263	0.005493
872.7429	0.005028
873.4596	0.005028
874.1763	0.004542
874.8932	0.005577
875.6101	0.004901
876.3270	0.007013
877.0441	0.004141
877.7612	0.005598
878.4784	0.006950
879.1957	0.007710
879.9130	0.008196
880.6304	0.010075
881.3479	0.008449
882.0654	0.008175
882.7831	0.005239
883.5007	0.004943
884.2185	0.005535
884.9363	0.004880
885.6542	0.007731
886.3722	0.006126
887.0903	0.005978
887.8084	0.004204
888.5266	0.004669
889.2448	0.004817
889.9632	0.005450
890.6816	0.004268
891.4001	0.004162
892.1186	0.004437
892.8372	0.004711
893.5559	0.004014
894.2747	0.004563
894.9935	0.005091
895.7124	0.004289
896.4314	0.004035
897.1504	0.005767
897.8695	0.004796
898.5887	0.004669
899.3079	0.004331
900.0272	0.004352
900.7466	0.003106
901.4661	0.004373
902.1856	0.004120
902.9052	0.003697
903.6249	0.002874
904.3446	0.004162
905.0644	0.003845
905.7843	0.003866
906.5043	0.003803
907.2243	0.004965
907.9444	0.003148
908.6645	0.002388
909.3847	0.002663
910.1050	0.001987
910.8254	0.003022
911.5458	0.002958
912.2663	0.003486
912.9869	0.005007
913.7075	0.003296
914.4283	0.002599
915.1490	0.000678
915.8699	0.003972
916.5908	0.003613
917.3118	0.004584
918.0328	0.004796
918.7539	0.004416
919.4751	0.003022
920.1964	0.003106
920.9177	0.001797
921.6391	0.003296
922.3606	0.002304
923.0821	0.002768
923.8037	0.002937
924.5254	0.002388
925.2471	0.001733
925.9689	0.001924
926.6908	0.003486
927.4127	0.001353
928.1347	0.001839
928.8568	0.002895
929.5789	0.001902
930.3011	0.003275
931.0234	0.002219
931.7457	0.002726
932.4681	0.001945
933.1906	0.002114
933.9131	0.002346
934.6358	0.002684
935.3584	0.002261
936.0812	0.000741
936.8040	0.000656
937.5269	0.001691
938.2498	0.000889
938.9728	0.000530
939.6959	0.002177
940.4190	0.000382
941.1422	0.001290
941.8655	0.001945
942.5889	0.001586
943.3123	0.000361
944.0357	0.000952
944.7593	0.000973
945.4829	0.001522
946.2066	0.000276
946.9303	0.000889
947.6541	0.001121
948.3780	0.000530
949.1019	-0.000104
949.8259	0.001184
950.5500	-0.000484
951.2741	0.001417
951.9983	0.000825
952.7226	0.000783
953.4469	0.000931
954.1713	0.001881
954.8958	0.001670
955.6203	0.000551
956.3449	0.000107
957.0696	0.000445
957.7943	-0.000632
958.5191	0.000783
959.2439	0.001607
959.9688	0.000361
960.6938	-0.000421
961.4189	0.000741
962.1440	0.000065
962.8692	0.000846
963.5944	-0.000104
964.3197	0.000846
965.0451	0.000086
965.7705	0.002388
966.4960	0.000382
967.2216	-0.000062
967.9472	0.000065
968.6729	0.000023
969.3987	-0.001118
970.1245	0.001501
970.8504	0.000889
971.5763	-0.000125
972.3023	0.001755
973.0284	0.000910
973.7545	-0.000399
974.4807	-0.000146
975.2070	0.000825
975.9333	0.000150
976.6597	0.000952
977.3862	0.000868
978.1127	0.000340
978.8393	0.000002
979.5659	-0.000378
980.2926	-0.000885
981.0194	-0.000231
981.7462	0.000762
982.4731	-0.000062
983.2001	0.001311
983.9271	-0.000040
984.6542	-0.000252
985.3814	-0.000294
986.1086	0.000445
986.8358	0.000593
987.5632	0.000086
988.2906	0.000002
989.0180	-0.001033
989.7456	0.000023
990.4732	-0.000547
991.2008	-0.000442
991.9285	0.000699
992.6563	-0.001033
993.3841	0.001438
994.1120	-0.000526
994.8400	0.001839
995.5680	-0.000209
996.2961	-0.000759
997.0242	-0.000378
997.7524	-0.000399
998.4807	-0.000336
999.2090	0.000466
999.9374	0.000846
1000.67	-0.000083
1001.39	0.000868
1002.12	0.000804
1002.85	0.000361
1003.58	0.000952
1004.31	0.001374
1005.04	-0.001181
1005.77	0.001565
1006.5	0.000952
1007.22	0.001037
1007.95	-0.000273
1008.68	0.000952
1009.41	0.000509
1010.14	0.000002
1010.87	-0.000505
1011.6	0.000551
1012.33	-0.000336
1013.06	0.001374
1013.79	-0.000759
1014.52	0.000150
1015.25	-0.001561
1015.98	0.000868
1016.71	-0.000315
1017.44	-0.000104
1018.17	0.000741
1018.9	-0.000104
1019.63	-0.000399
1020.36	-0.000104
1021.09	-0.001202
1021.82	0.000720
1022.55	-0.000653
1023.03	-0.001286