File: Auto_Polymerization/Spectra/MRG-061-F-2_spectra_while_stopped/spectrum_2025-06-19_11-54-11.txt
# Wavelength (nm)	Intensity (a.u.)
197.7802	0.000549
198.3922	0.001330
199.0044	0.001266
199.6168	-0.000127
200.2292	-0.000485
200.8418	0.000232
201.4546	0.001034
202.0674	0.000992
202.6805	0.001899
203.2936	0.001076
203.9069	-0.000127
204.5203	0.001140
205.1338	-0.000380
205.7475	0.001498
206.3614	-0.000317
206.9753	0.000718
207.5894	0.001878
208.2036	-0.000127
208.8180	0.000380
209.4325	-0.001224
210.0471	0.000739
210.6618	0.000042
211.2767	0.000422
211.8918	-0.000464
212.5069	0.000507
213.1222	0.000084
213.7376	0.001498
214.3532	-0.000063
214.9689	0.001287
215.5847	0.000612
216.2007	0.002364
216.8168	0.001667
217.4330	0.001330
218.0494	0.000021
218.6659	0.002765
219.2825	0.001076
219.8992	0.000422
220.5161	0.001773
221.1332	0.001097
221.7503	0.001034
222.3676	0.001857
222.9850	0.000000
223.6026	0.002659
224.2203	-0.000317
224.8381	0.002469
225.4561	0.000232
226.0742	0.000844
226.6924	0.000654
227.3107	0.000675
227.9292	0.001140
228.5478	0.000823
229.1666	0.000823
229.7855	0.000528
230.4045	0.000317
231.0236	0.000907
231.6429	0.000971
232.2623	0.000190
232.8818	0.000169
233.5015	0.001182
234.1213	0.000190
234.7413	0.000359
235.3613	0.001203
235.9815	0.001034
236.6018	-0.000211
237.2223	0.001266
237.8429	-0.000084
238.4636	0.000907
239.0845	0.000570
239.7055	0.001119
240.3266	0.000633
240.9478	0.002174
241.5692	0.000317
242.1907	0.001119
242.8124	-0.000507
243.4341	0.001773
244.0560	0.001773
244.6781	0.000929
245.3002	-0.001119
245.9225	0.001667
246.5449	0.001182
247.1675	0.000359
247.7902	0.000907
248.4130	0.000739
249.0359	0.000950
249.6590	0.001034
250.2822	0.000295
250.9056	0.001266
251.5290	0.000823
252.1526	0.001097
252.7763	0.000718
253.4002	0.000127
254.0242	-0.000591
254.6483	0.001942
255.2725	-0.001034
255.8969	0.002174
256.5214	0.000295
257.1460	0.000929
257.7708	0.000253
258.3957	0.002068
259.0207	0.000507
259.6459	0.001097
260.2711	0.000169
260.8965	-0.000106
261.5221	0.000612
262.1477	0.000127
262.7735	0.001625
263.3995	0.000000
264.0255	0.000063
264.6517	0.000295
265.2780	0.000127
265.9044	0.001393
266.5310	0.000063
267.1577	-0.000992
267.7845	0.000718
268.4114	0.002153
269.0385	-0.000021
269.6657	0.000696
270.2931	-0.000106
270.9205	0.001351
271.5481	0.000232
272.1758	0.000675
272.8037	0.001372
273.4316	0.000570
274.0597	0.001477
274.6880	0.000127
275.3163	0.000232
275.9448	0.001520
276.5734	0.000907
277.2022	0.000359
277.8310	0.000507
278.4600	0.001393
279.0891	-0.000760
279.7184	-0.001182
280.3477	0.000042
280.9772	0.000232
281.6069	0.001203
282.2366	0.000359
282.8665	0.001013
283.4965	0.001097
284.1266	0.000190
284.7569	0.002174
285.3873	0.000422
286.0178	-0.000063
286.6484	0.001731
287.2792	0.000169
287.9101	0.000528
288.5411	0.002279
289.1723	-0.000654
289.8035	0.000464
290.4349	0.001245
291.0665	0.000401
291.6981	0.000148
292.3299	0.001161
292.9618	0.000929
293.5938	-0.000886
294.2260	-0.000211
294.8582	0.001604
295.4906	0.000760
296.1232	0.001076
296.7558	0.000253
297.3886	0.000359
298.0215	0.002068
298.6545	0.000591
299.2877	0.000464
299.9210	0.000464
300.5544	0.000612
301.1879	0.000380
301.8215	0.000232
302.4553	0.001773
303.0892	0.000359
303.7233	0.000380
304.3574	0.000718
304.9917	0.000612
305.6261	-0.001076
306.2606	0.002258
306.8953	0.000232
307.5301	0.001541
308.1650	0.001646
308.8000	0.000718
309.4351	-0.000127
310.0704	0.001625
310.7058	-0.001034
311.3413	0.000612
311.9770	0.001351
312.6127	0.000106
313.2486	0.000401
313.8846	0.000760
314.5208	0.001899
315.1570	0.000992
315.7934	0.000633
316.4299	0.001667
317.0666	0.000000
317.7033	0.000295
318.3402	0.000802
318.9772	0.001731
319.6143	0.000570
320.2516	-0.000190
320.8890	0.000464
321.5265	0.001836
322.1641	-0.000338
322.8018	0.000760
323.4397	0.000084
324.0777	0.001119
324.7158	-0.000084
325.3540	0.001245
325.9924	0.000992
326.6308	0.000528
327.2694	0.001097
327.9082	0.000781
328.5470	0.000338
329.1860	0.000443
329.8251	-0.000950
330.4643	0.000612
331.1036	0.000021
331.7431	0.000739
332.3826	0.001583
333.0223	0.001308
333.6622	0.000211
334.3021	-0.000739
334.9422	0.001731
335.5823	0.000190
336.2227	-0.001308
336.8631	0.000654
337.5036	0.001815
338.1443	0.002258
338.7851	0.000675
339.4260	0.001034
340.0670	0.000549
340.7082	0.000338
341.3495	0.000528
341.9909	0.001794
342.6324	-0.000760
343.2740	0.000485
343.9158	0.000380
344.5577	0.001034
345.1997	0.001393
345.8418	0.001942
346.4840	0.000443
347.1264	0.001667
347.7689	-0.000507
348.4115	0.000380
349.0542	-0.000359
349.6971	0.001456
350.3400	0.000232
350.9831	-0.001097
351.6263	-0.000380
352.2696	0.001266
352.9131	0.001097
353.5566	0.001245
354.2003	-0.000633
354.8441	0.000865
355.4881	0.000886
356.1321	0.000295
356.7763	0.001731
357.4206	0.000021
358.0650	-0.000823
358.7095	0.000886
359.3541	0.000084
359.9989	0.001773
360.6438	-0.000253
361.2888	0.000950
361.9339	0.001076
362.5791	0.001498
363.2245	0.001667
363.8699	0.001857
364.5155	0.000000
365.1612	0.001245
365.8071	-0.000317
366.4530	0.000654
367.0991	0.000591
367.7453	0.001520
368.3916	0.000211
369.0380	0.001161
369.6845	0.001182
370.3312	0.000295
370.9780	-0.000844
371.6249	0.000549
372.2719	0.000148
372.9190	0.001013
373.5663	0.000696
374.2136	0.001055
374.8611	0.002068
375.5087	0.002912
376.1564	0.000253
376.8043	0.000211
377.4522	-0.000464
378.1003	0.000633
378.7485	-0.000612
379.3968	0.000633
380.0452	0.000907
380.6938	0.001245
381.3424	0.000507
381.9912	-0.000106
382.6401	0.000464
383.2891	0.001034
383.9382	0.000127
384.5875	-0.001013
385.2368	0.001899
385.8863	0.000253
386.5359	0.001899
387.1856	0.000000
387.8355	0.000718
388.4854	0.002300
389.1355	0.000718
389.7856	0.001646
390.4359	0.002216
391.0863	0.002343
391.7369	0.001562
392.3875	0.002343
393.0383	0.002174
393.6891	0.002955
394.3401	0.002680
394.9912	0.004770
395.6425	0.002955
396.2938	0.002680
396.9453	0.003102
397.5968	0.004305
398.2485	0.005276
398.9003	0.005740
399.5522	0.005107
400.2043	0.006711
400.8564	0.008146
401.5087	0.006859
402.1610	0.007745
402.8135	0.008463
403.4661	0.008252
404.1189	0.007914
404.7717	0.010130
405.4246	0.011228
406.0777	0.008927
406.7309	0.010151
407.3842	0.008758
408.0376	0.008843
408.6911	0.010679
409.3448	0.011038
409.9985	0.012811
410.6524	0.012515
411.3064	0.012642
411.9605	0.013444
412.6147	0.012768
413.2690	0.014351
413.9234	0.014731
414.5780	0.012874
415.2326	0.014984
415.8874	0.014077
416.5423	0.016145
417.1973	0.015512
417.8524	0.017010
418.5077	0.016293
419.1630	0.015449
419.8185	0.015259
420.4741	0.018931
421.1298	0.019121
421.7856	0.022751
422.4415	0.021484
423.0975	0.021273
423.7536	0.018340
424.4099	0.019480
425.0663	0.020239
425.7228	0.019480
426.3793	0.019057
427.0361	0.020704
427.6929	0.022012
428.3498	0.021084
429.0068	0.021126
429.6640	0.023426
430.3213	0.023764
430.9787	0.025030
431.6362	0.021949
432.2938	0.020408
432.9515	0.019944
433.6093	0.023954
434.2673	0.025326
434.9253	0.024397
435.5835	0.021611
436.2418	0.023700
436.9001	0.022730
437.5586	0.022097
438.2173	0.023869
438.8760	0.024080
439.5348	0.023131
440.1938	0.021569
440.8528	0.023278
441.5120	0.027647
442.1713	0.027774
442.8307	0.026929
443.4902	0.026697
444.1498	0.026191
444.8095	0.026507
445.4694	0.026676
446.1293	0.025389
446.7894	0.024861
447.4496	0.024207
448.1098	0.022434
448.7702	0.023679
449.4307	0.025347
450.0914	0.022181
450.7521	0.023342
451.4129	0.021252
452.0739	0.022835
452.7349	0.021400
453.3961	0.020704
454.0574	0.019374
454.7188	0.020282
455.3803	0.017496
456.0419	0.017221
456.7036	0.018066
457.3654	0.019480
458.0274	0.019691
458.6894	0.019057
459.3516	0.019163
460.0138	0.018361
460.6762	0.017876
461.3387	0.017981
462.0013	0.016040
462.6640	0.013528
463.3268	0.014879
463.9897	0.015216
464.6528	0.017369
465.3159	0.016082
465.9792	0.017749
466.6425	0.013697
467.3060	0.012747
467.9696	0.012494
468.6333	0.011017
469.2970	0.011038
469.9610	0.008969
470.6250	0.009349
471.2891	0.010573
471.9533	0.009307
472.6177	0.011354
473.2821	0.009054
473.9467	0.009370
474.6113	0.008716
475.2761	0.008590
475.9410	0.009349
476.6060	0.008442
477.2711	0.007070
477.9363	0.007239
478.6016	0.008463
479.2670	0.007956
479.9325	0.008146
480.5982	0.009687
481.2639	0.008252
481.9298	0.006627
482.5957	0.008315
483.2618	0.006437
483.9280	0.006880
484.5943	0.007091
485.2606	0.007239
485.9271	0.019606
486.5937	0.013781
487.2605	0.012135
487.9273	0.006437
488.5942	0.005403
489.2612	0.004770
489.9284	0.005888
490.5956	0.006585
491.2630	0.005930
491.9304	0.003630
492.5980	0.005403
493.2657	0.004685
493.9334	0.005065
494.6013	0.004727
495.2693	0.004052
495.9374	0.004221
496.6056	0.005783
497.2739	0.005572
497.9423	0.005656
498.6109	0.005150
499.2795	0.003714
499.9482	0.004875
500.6171	0.004432
501.2860	0.003947
501.9551	0.005318
502.6242	0.004875
503.2935	0.003947
503.9628	0.004094
504.6323	0.003335
505.3019	0.003883
505.9716	0.003841
506.6414	0.003187
507.3113	0.004411
507.9813	0.003588
508.6514	0.003925
509.3216	0.002153
509.9919	0.004896
510.6623	0.002427
511.3329	0.005192
512.0035	0.003925
512.6742	0.002638
513.3451	0.003018
514.0160	0.002849
514.6871	0.004474
515.3582	0.003313
516.0295	0.003588
516.7008	0.003714
517.3723	0.003313
518.0439	0.003989
518.7155	0.003081
519.3873	0.003419
520.0592	0.002786
520.7312	0.003292
521.4033	0.003989
522.0755	0.002849
522.7478	0.002997
523.4202	0.003968
524.0927	0.005487
524.7653	0.003778
525.4380	0.004369
526.1108	0.004137
526.7837	0.003546
527.4568	0.004981
528.1299	0.004516
528.8031	0.004390
529.4765	0.005529
530.1499	0.005804
530.8234	0.007028
531.4971	0.004115
532.1708	0.005487
532.8447	0.005382
533.5186	0.007176
534.1927	0.006099
534.8668	0.009476
535.5411	0.008231
536.2155	0.009054
536.8899	0.008231
537.5645	0.007935
538.2392	0.008568
538.9139	0.009729
539.5888	0.008379
540.2638	0.011122
540.9389	0.011122
541.6140	0.012979
542.2893	0.011354
542.9647	0.013127
543.6402	0.012114
544.3158	0.013929
544.9915	0.017348
545.6673	0.014225
546.3432	0.016335
547.0192	0.017137
547.6953	0.018551
548.3715	0.020978
549.0478	0.019416
549.7242	0.018614
550.4007	0.017770
551.0773	0.018783
551.7540	0.020408
552.4308	0.022856
553.1077	0.023299
553.7847	0.023468
554.4618	0.022329
555.1390	0.022561
555.8163	0.027394
556.4937	0.025832
557.1712	0.024882
557.8488	0.025748
558.5266	0.025178
559.2044	0.023722
559.8823	0.025895
560.5603	0.031889
561.2384	0.034211
561.9166	0.034063
562.5949	0.031720
563.2733	0.035224
563.9519	0.036258
564.6305	0.038558
565.3092	0.038959
565.9880	0.039381
566.6669	0.042758
567.3459	0.049891
568.0250	0.054408
568.7043	0.061309
569.3836	0.075027
570.0630	0.097398
570.7425	0.104299
571.4221	0.121753
572.1018	0.134605
572.7816	0.115231
573.4615	0.136357
574.1415	0.156153
574.8216	0.167127
575.5018	0.168900
576.1821	0.152418
576.8626	0.175211
577.5431	0.190364
578.2237	0.237005
578.9044	0.195408
579.5851	0.198552
580.2660	0.207564
580.9470	0.203153
581.6281	0.309457
582.3093	0.295085
582.9906	0.233079
583.6720	0.195682
584.3535	0.194817
585.0351	0.222168
585.7167	0.228246
586.3985	0.199797
587.0804	0.212355
587.7624	0.224870
588.4445	0.197244
589.1266	0.171792
589.8089	0.162674
590.4913	0.145875
591.1737	0.131461
591.8563	0.131017
592.5389	0.151679
593.2217	0.201655
593.9046	0.187493
594.5875	0.167803
595.2705	0.197286
595.9537	0.174050
596.6369	0.142836
597.3203	0.148914
598.0037	0.146318
598.6872	0.150645
599.3709	0.180740
600.0546	0.182492
600.7384	0.175443
601.4223	0.183336
602.1064	0.167106
602.7905	0.171686
603.4747	0.186079
604.1590	0.170947
604.8434	0.154000
605.5279	0.161450
606.2125	0.173733
606.8972	0.154676
607.5819	0.161661
608.2668	0.150012
608.9518	0.141971
609.6369	0.133782
610.3220	0.149315
611.0073	0.138636
611.6927	0.140937
612.3781	0.131651
613.0637	0.132474
613.7493	0.128422
614.4351	0.126944
615.1209	0.125129
615.8068	0.128823
616.4929	0.114028
617.1790	0.108499
617.8652	0.111327
618.5515	0.102716
619.2379	0.088745
619.9244	0.094591
620.6110	0.091678
621.2977	0.072157
621.9845	0.081147
622.6714	0.084988
623.3584	0.088808
624.0454	0.084313
624.7326	0.090581
625.4199	0.084862
626.1072	0.079185
626.7947	0.068759
627.4822	0.071123
628.1698	0.068062
628.8576	0.057848
629.5454	0.066226
630.2333	0.062026
630.9213	0.056877
631.6094	0.055843
632.2976	0.051326
632.9859	0.048287
633.6743	0.044700
634.3628	0.045269
635.0514	0.043180
635.7400	0.041787
636.4288	0.047549
637.1177	0.045417
637.8066	0.042568
638.4957	0.044235
639.1848	0.040774
639.8740	0.037539
640.5633	0.036974
641.2528	0.035914
641.9423	0.033003
642.6319	0.032039
643.3216	0.031107
644.0113	0.030831
644.7012	0.026510
645.3912	0.028011
646.0812	0.025936
646.7714	0.027106
647.4616	0.024808
648.1520	0.029154
648.8424	0.035930
649.5329	0.034940
650.2236	0.031702
650.9143	0.027404
651.6051	0.029543
652.2960	0.031957
652.9870	0.030894
653.6780	0.033035
654.3692	0.032606
655.0605	0.067910
655.7518	0.950790
656.4433	1.000000
657.1348	0.865127
657.8264	0.530969
658.5181	0.409221
659.2099	0.328237
659.9018	0.099721
660.5938	0.032903
661.2859	0.024810
661.9781	0.024321
662.6704	0.022162
663.3627	0.022436
664.0552	0.022714
664.7477	0.022624
665.4403	0.026667
666.1330	0.026222
666.8259	0.021955
667.5188	0.022729
668.2117	0.021584
668.9048	0.020999
669.5980	0.022244
670.2913	0.022920
670.9846	0.022033
671.6781	0.027795
672.3716	0.034569
673.0652	0.033873
673.7589	0.030834
674.4527	0.027731
675.1466	0.027943
675.8406	0.025853
676.5347	0.027225
677.2288	0.024059
677.9231	0.028069
678.6174	0.032311
679.3119	0.034506
680.0064	0.035498
680.7010	0.033556
681.3957	0.035603
682.0905	0.033810
682.7854	0.029335
683.4803	0.033029
684.1754	0.032396
684.8705	0.038706
685.5658	0.043264
686.2611	0.043876
686.9565	0.043708
687.6520	0.042462
688.3476	0.041872
689.0433	0.037693
689.7390	0.038073
690.4349	0.034590
691.1308	0.040247
691.8269	0.038579
692.5230	0.038031
693.2192	0.038009
693.9155	0.036828
694.6119	0.032797
695.3083	0.036026
696.0049	0.031467
696.7016	0.036722
697.3983	0.042251
698.0951	0.038009
698.7920	0.039339
699.4890	0.035920
700.1861	0.033577
700.8833	0.031193
701.5806	0.029631
702.2779	0.031193
702.9753	0.029905
703.6729	0.030095
704.3705	0.028090
705.0682	0.024397
705.7660	0.026550
706.4638	0.033071
707.1618	0.036216
707.8599	0.037862
708.5580	0.037735
709.2562	0.033683
709.9545	0.035097
710.6529	0.035941
711.3514	0.031784
712.0500	0.029378
712.7486	0.029378
713.4474	0.033092
714.1462	0.036595
714.8451	0.036342
715.5441	0.037017
716.2432	0.030137
716.9424	0.029779
717.6416	0.028681
718.3410	0.028322
719.0404	0.030728
719.7399	0.028555
720.4395	0.028787
721.1392	0.029969
721.8390	0.030433
722.5388	0.030222
723.2388	0.026676
723.9388	0.028998
724.6389	0.028365
725.3391	0.032163
726.0394	0.031657
726.7398	0.035329
727.4403	0.032227
728.1408	0.035202
728.8414	0.035414
729.5421	0.037883
730.2429	0.035224
730.9438	0.042927
731.6448	0.042526
732.3458	0.042167
733.0470	0.043771
733.7482	0.044109
734.4495	0.054323
735.1509	0.048330
735.8524	0.049132
736.5539	0.051770
737.2556	0.049701
737.9573	0.046578
738.6591	0.041661
739.3610	0.049005
740.0630	0.044235
740.7651	0.038178
741.4672	0.035625
742.1695	0.036405
742.8718	0.034886
743.5742	0.033240
744.2767	0.031530
744.9792	0.029167
745.6819	0.029525
746.3846	0.029758
747.0874	0.030855
747.7903	0.033409
748.4933	0.028681
749.1964	0.031615
749.8995	0.036004
750.6028	0.041070
751.3061	0.036996
752.0095	0.039867
752.7130	0.036996
753.4166	0.038389
754.1202	0.042568
754.8239	0.042251
755.5278	0.042294
756.2317	0.046114
756.9356	0.050482
757.6397	0.060000
758.3438	0.056307
759.0481	0.055758
759.7524	0.059747
760.4568	0.062850
761.1613	0.063440
761.8658	0.052128
762.5705	0.049765
763.2752	0.049533
763.9800	0.051495
764.6849	0.058987
765.3898	0.055885
766.0949	0.051960
766.8000	0.043159
767.5052	0.038938
768.2105	0.041661
768.9159	0.049744
769.6214	0.046451
770.3269	0.043243
771.0325	0.047084
771.7382	0.046177
772.4440	0.042378
773.1499	0.038685
773.8558	0.037967
774.5618	0.033767
775.2679	0.030370
775.9741	0.027119
776.6804	0.026993
777.3868	0.023131
778.0932	0.023996
778.7997	0.029715
779.5063	0.033050
780.2130	0.030201
780.9197	0.029631
781.6265	0.036089
782.3335	0.035519
783.0405	0.033388
783.7475	0.033810
784.4547	0.031889
785.1619	0.030391
785.8692	0.030095
786.5766	0.029040
787.2841	0.028934
787.9917	0.031024
788.6993	0.033303
789.4070	0.031003
790.1148	0.027731
790.8227	0.026761
791.5306	0.024228
792.2387	0.023321
792.9468	0.022244
793.6550	0.024861
794.3632	0.032649
795.0716	0.033577
795.7800	0.031214
796.4885	0.025220
797.1971	0.023933
797.9058	0.022772
798.6145	0.022899
799.3233	0.021991
800.0322	0.021696
800.7412	0.019522
801.4503	0.017981
802.1594	0.017791
802.8686	0.018952
803.5779	0.019437
804.2873	0.018488
804.9968	0.017454
805.7063	0.017707
806.4159	0.025072
807.1256	0.024418
807.8354	0.023785
808.5452	0.024439
809.2551	0.022751
809.9651	0.020767
810.6752	0.017960
811.3853	0.018994
812.0956	0.018403
812.8059	0.014499
813.5163	0.017200
814.2267	0.019585
814.9373	0.019501
815.6479	0.015913
816.3586	0.015617
817.0694	0.014541
817.7802	0.014499
818.4912	0.013486
819.2022	0.012916
819.9133	0.012937
820.6244	0.015596
821.3357	0.016799
822.0470	0.013950
822.7584	0.012452
823.4698	0.011713
824.1814	0.009961
824.8930	0.011101
825.6047	0.014161
826.3165	0.013296
827.0283	0.012093
827.7402	0.015322
828.4522	0.012937
829.1643	0.013739
829.8765	0.012051
830.5887	0.010911
831.3010	0.009413
832.0134	0.009033
832.7259	0.008484
833.4384	0.010025
834.1510	0.012325
834.8637	0.010405
835.5765	0.011776
836.2893	0.009560
837.0022	0.010742
837.7152	0.008315
838.4283	0.007323
839.1414	0.007914
839.8546	0.008062
840.5679	0.005572
841.2813	0.006352
841.9947	0.006986
842.7082	0.006374
843.4218	0.004432
844.1355	0.005593
844.8492	0.006627
845.5631	0.006732
846.2770	0.005804
846.9909	0.006352
847.7050	0.005973
848.4191	0.005318
849.1333	0.005614
849.8475	0.006120
850.5619	0.004981
851.2763	0.004938
851.9908	0.007260
852.7053	0.009413
853.4200	0.014963
854.1347	0.014984
854.8495	0.015153
855.5643	0.012832
856.2792	0.012177
856.9942	0.013465
857.7093	0.010890
858.4245	0.011291
859.1397	0.008737
859.8550	0.009054
860.5704	0.007745
861.2858	0.007154
862.0013	0.007640
862.7169	0.006817
863.4326	0.008273
864.1483	0.006669
864.8642	0.006564
865.5800	0.005930
866.2960	0.006585
867.0120	0.007260
867.7281	0.005086
868.4443	0.004812
869.1606	0.003736
869.8769	0.005825
870.5933	0.005023
871.3097	0.007091
872.0263	0.005529
872.7429	0.005339
873.4596	0.005529
874.1763	0.004896
874.8932	0.006289
875.6101	0.006500
876.3270	0.005171
877.0441	0.005909
877.7612	0.007091
878.4784	0.007577
879.1957	0.008020
879.9130	0.007366
880.6304	0.007830
881.3479	0.007724
882.0654	0.007640
882.7831	0.006859
883.5007	0.006247
884.2185	0.006374
884.9363	0.007513
885.6542	0.006120
886.3722	0.007239
887.0903	0.005487
887.8084	0.006437
888.5266	0.006163
889.2448	0.005424
889.9632	0.004453
890.6816	0.004411
891.4001	0.004938
892.1186	0.005107
892.8372	0.006099
893.5559	0.004706
894.2747	0.005002
894.9935	0.004495
895.7124	0.005213
896.4314	0.005508
897.1504	0.005635
897.8695	0.005740
898.5887	0.006078
899.3079	0.005529
900.0272	0.003799
900.7466	0.005445
901.4661	0.004432
902.1856	0.006416
902.9052	0.003609
903.6249	0.003947
904.3446	0.004411
905.0644	0.004601
905.7843	0.004960
906.5043	0.006184
907.2243	0.003862
907.9444	0.004052
908.6645	0.004305
909.3847	0.003524
910.1050	0.004242
910.8254	0.004580
911.5458	0.004432
912.2663	0.004432
912.9869	0.004960
913.7075	0.004833
914.4283	0.003524
915.1490	0.003757
915.8699	0.003904
916.5908	0.003757
917.3118	0.003588
918.0328	0.004706
918.7539	0.004073
919.4751	0.003292
920.1964	0.003778
920.9177	0.003461
921.6391	0.003799
922.3606	0.003651
923.0821	0.003567
923.8037	0.003250
924.5254	0.003524
925.2471	0.002722
925.9689	0.004115
926.6908	0.003799
927.4127	0.003567
928.1347	0.003672
928.8568	0.003440
929.5789	0.002701
930.3011	0.003039
931.0234	0.003482
931.7457	0.002005
932.4681	0.003356
933.1906	0.001731
933.9131	0.003081
934.6358	0.002659
935.3584	0.001878
936.0812	0.001520
936.8040	0.002026
937.5269	0.002870
938.2498	0.000211
938.9728	0.002068
939.6959	0.000971
940.4190	0.002174
941.1422	0.000865
941.8655	0.002575
942.5889	0.002089
943.3123	0.001921
944.0357	0.000844
944.7593	0.002068
945.4829	0.001203
946.2066	0.000929
946.9303	0.001625
947.6541	0.001984
948.3780	0.001688
949.1019	0.000886
949.8259	0.001667
950.5500	0.000359
951.2741	0.001414
951.9983	0.002089
952.7226	0.002448
953.4469	0.002089
954.1713	0.001667
954.8958	0.001625
955.6203	0.001308
956.3449	0.001942
957.0696	0.002596
957.7943	0.001583
958.5191	0.001055
959.2439	0.001055
959.9688	0.001055
960.6938	0.001667
961.4189	0.000253
962.1440	0.001097
962.8692	-0.000380
963.5944	0.000211
964.3197	0.000000
965.0451	0.001224
965.7705	0.001372
966.4960	0.002364
967.2216	0.000422
967.9472	0.000654
968.6729	0.001604
969.3987	0.001583
970.1245	0.000971
970.8504	0.000612
971.5763	0.000232
972.3023	0.002279
973.0284	-0.000021
973.7545	0.001709
974.4807	0.000190
975.2070	0.000760
975.9333	0.001097
976.6597	-0.000106
977.3862	0.000971
978.1127	0.001330
978.8393	0.000549
979.5659	0.000443
980.2926	0.001541
981.0194	0.000844
981.7462	0.000570
982.4731	0.001393
983.2001	0.000169
983.9271	0.000464
984.6542	0.001266
985.3814	0.002934
986.1086	0.001921
986.8358	0.001583
987.5632	0.000654
988.2906	0.001520
989.0180	0.001034
989.7456	0.000274
990.4732	0.001119
991.2008	0.000781
991.9285	0.000992
992.6563	0.001266
993.3841	0.000253
994.1120	0.000211
994.8400	0.000549
995.5680	0.001161
996.2961	0.001477
997.0242	-0.000169
997.7524	0.000823
998.4807	0.000654
999.2090	-0.000148
999.9374	0.000464
1000.67	0.000000
1001.39	0.000422
1002.12	0.001287
1002.85	0.000042
1003.58	0.001140
1004.31	0.000718
1005.04	-0.000211
1005.77	-0.000781
1006.5	0.001604
1007.22	0.000760
1007.95	0.000760
1008.68	0.001266
1009.41	0.000760
1010.14	0.001203
1010.87	0.000718
1011.6	0.000696
1012.33	0.000253
1013.06	0.000380
1013.79	0.001477
1014.52	0.001625
1015.25	0.002258
1015.98	0.000169
1016.71	0.000422
1017.44	0.000021
1018.17	0.001477
1018.9	0.000971
1019.63	0.000000
1020.36	0.002237
1021.09	0.001414
1021.82	-0.000633
1022.55	-0.000295
1023.03	-0.000443