File: Auto_Polymerization/Spectra/MRG-061-F-2_spectra_while_stopped/spectrum_2025-06-19_11-28-37.txt
# Wavelength (nm)	Intensity (a.u.)
197.7802	0.001056
198.3922	-0.000591
199.0044	0.000042
199.6168	0.000190
200.2292	0.001605
200.8418	0.000063
201.4546	-0.000465
202.0674	0.000317
202.6805	0.000042
203.2936	-0.000718
203.9069	0.001203
204.5203	0.000380
205.1338	0.002238
205.7475	0.000063
206.3614	0.000633
206.9753	0.000887
207.5894	-0.000253
208.2036	-0.000106
208.8180	-0.000063
209.4325	-0.000127
210.0471	0.001372
210.6618	-0.000317
211.2767	0.000908
211.8918	0.000802
212.5069	0.001182
213.1222	0.000591
213.7376	0.001795
214.3532	0.000232
214.9689	0.001436
215.5847	-0.000866
216.2007	0.000253
216.8168	0.000338
217.4330	0.000866
218.0494	-0.000465
218.6659	0.000971
219.2825	0.000465
219.8992	-0.000169
220.5161	0.000908
221.1332	-0.000338
221.7503	-0.000317
222.3676	0.000887
222.9850	0.000443
223.6026	0.001056
224.2203	0.000908
224.8381	0.000401
225.4561	-0.000760
226.0742	-0.000739
226.6924	-0.000486
227.3107	0.000211
227.9292	-0.000971
228.5478	-0.000739
229.1666	-0.000950
229.7855	-0.001225
230.4045	0.000422
231.0236	0.000676
231.6429	-0.000591
232.2623	0.000823
232.8818	-0.000507
233.5015	0.000084
234.1213	-0.000739
234.7413	0.001203
235.3613	-0.000549
235.9815	-0.000063
236.6018	0.000823
237.2223	0.000084
237.8429	0.000000
238.4636	-0.000612
239.0845	-0.000992
239.7055	0.000549
240.3266	0.000697
240.9478	0.001415
241.5692	0.000697
242.1907	0.000211
242.8124	-0.000380
243.4341	0.001056
244.0560	-0.000950
244.6781	0.000908
245.3002	0.000802
245.9225	-0.000338
246.5449	0.000887
247.1675	0.000866
247.7902	0.000486
248.4130	-0.001077
249.0359	-0.000253
249.6590	-0.001246
250.2822	0.000127
250.9056	0.000549
251.5290	-0.000486
252.1526	0.000507
252.7763	0.000760
253.4002	-0.000422
254.0242	0.001499
254.6483	-0.000950
255.2725	0.000950
255.8969	0.001267
256.5214	0.000802
257.1460	0.000929
257.7708	-0.000697
258.3957	0.000591
259.0207	0.000359
259.6459	0.000296
260.2711	-0.000296
260.8965	0.000380
261.5221	0.000021
262.1477	0.000676
262.7735	-0.000486
263.3995	0.000823
264.0255	0.000401
264.6517	0.000697
265.2780	0.000802
265.9044	-0.000063
266.5310	0.000823
267.1577	0.001330
267.7845	0.000528
268.4114	0.000549
269.0385	0.001035
269.6657	0.000338
270.2931	0.000211
270.9205	-0.000422
271.5481	-0.000570
272.1758	0.000042
272.8037	-0.000612
273.4316	0.000232
274.0597	0.000443
274.6880	-0.000443
275.3163	0.000845
275.9448	-0.000443
276.5734	-0.000760
277.2022	0.000084
277.8310	0.000021
278.4600	0.000084
279.0891	-0.000760
279.7184	0.001562
280.3477	-0.000042
280.9772	0.000380
281.6069	0.000380
282.2366	0.000887
282.8665	-0.000823
283.4965	-0.000317
284.1266	0.000106
284.7569	0.000929
285.3873	0.000211
286.0178	0.001499
286.6484	0.001203
287.2792	-0.001182
287.9101	-0.000443
288.5411	0.000655
289.1723	0.000169
289.8035	0.000211
290.4349	-0.000655
291.0665	0.001415
291.6981	0.000190
292.3299	-0.000106
292.9618	-0.000021
293.5938	0.000169
294.2260	0.000422
294.8582	-0.000148
295.4906	-0.000676
296.1232	-0.000823
296.7558	0.000591
297.3886	0.000823
298.0215	-0.000781
298.6545	0.000380
299.2877	-0.000169
299.9210	-0.000063
300.5544	0.000591
301.1879	0.000528
301.8215	0.001013
302.4553	0.000232
303.0892	0.000211
303.7233	0.000359
304.3574	0.001203
304.9917	0.001964
305.6261	0.000823
306.2606	0.000528
306.8953	0.000274
307.5301	0.001246
308.1650	-0.000971
308.8000	-0.000296
309.4351	-0.000823
310.0704	0.000823
310.7058	-0.000823
311.3413	-0.000232
311.9770	-0.000823
312.6127	0.000528
313.2486	-0.000823
313.8846	0.001161
314.5208	0.000507
315.1570	0.000549
315.7934	-0.000992
316.4299	0.001499
317.0666	-0.000063
317.7033	-0.001161
318.3402	0.001394
318.9772	-0.000570
319.6143	-0.000106
320.2516	0.000866
320.8890	0.000274
321.5265	-0.000232
322.1641	-0.000676
322.8018	-0.000232
323.4397	-0.000232
324.0777	0.001035
324.7158	0.000127
325.3540	0.000169
325.9924	0.000612
326.6308	-0.000063
327.2694	-0.000633
327.9082	0.000781
328.5470	-0.000401
329.1860	-0.000866
329.8251	-0.001077
330.4643	0.000443
331.1036	-0.001119
331.7431	-0.000507
332.3826	0.001098
333.0223	0.000338
333.6622	-0.001140
334.3021	-0.000465
334.9422	0.000465
335.5823	0.000422
336.2227	-0.001182
336.8631	0.000908
337.5036	0.000148
338.1443	0.000845
338.7851	-0.000908
339.4260	-0.001140
340.0670	-0.000823
340.7082	-0.001013
341.3495	0.000190
341.9909	-0.000296
342.6324	-0.000422
343.2740	0.001246
343.9158	0.000317
344.5577	0.000845
345.1997	-0.000211
345.8418	-0.000359
346.4840	-0.000802
347.1264	-0.000760
347.7689	0.000507
348.4115	0.000063
349.0542	0.000739
349.6971	0.000274
350.3400	-0.000422
350.9831	0.000380
351.6263	0.000042
352.2696	-0.000486
352.9131	0.001225
353.5566	0.000486
354.2003	0.000042
354.8441	-0.000190
355.4881	-0.000359
356.1321	0.000106
356.7763	-0.000190
357.4206	0.000971
358.0650	0.000380
358.7095	0.000338
359.3541	0.000422
359.9989	-0.000042
360.6438	0.000401
361.2888	0.002344
361.9339	0.000760
362.5791	0.000063
363.2245	0.000802
363.8699	0.000992
364.5155	-0.000528
365.1612	-0.000570
365.8071	0.000380
366.4530	0.000296
367.0991	0.000380
367.7453	0.001731
368.3916	-0.000570
369.0380	0.002513
369.6845	0.001119
370.3312	-0.000148
370.9780	-0.000148
371.6249	0.000781
372.2719	0.000317
372.9190	0.001013
373.5663	0.000106
374.2136	0.001098
374.8611	-0.000338
375.5087	0.000908
376.1564	0.000781
376.8043	0.000380
377.4522	-0.000823
378.1003	0.000633
378.7485	0.000823
379.3968	0.000570
380.0452	-0.000063
380.6938	-0.001288
381.3424	0.000929
381.9912	-0.000443
382.6401	0.000486
383.2891	0.001436
383.9382	-0.000359
384.5875	0.000148
385.2368	0.000486
385.8863	0.000380
386.5359	0.001267
387.1856	-0.000591
387.8355	0.001562
388.4854	0.001520
389.1355	0.001879
389.7856	0.002048
390.4359	0.001879
391.0863	0.001752
391.7369	0.002914
392.3875	0.004603
393.0383	0.003146
393.6891	0.004920
394.3401	0.003737
394.9912	0.004793
395.6425	0.004962
396.2938	0.005342
396.9453	0.005257
397.5968	0.005257
398.2485	0.008066
398.9003	0.007580
399.5522	0.009016
400.2043	0.008952
400.8564	0.007115
401.5087	0.011021
402.1610	0.009248
402.8135	0.009734
403.4661	0.010430
404.1189	0.013175
404.7717	0.011613
405.4246	0.012584
406.0777	0.011507
406.7309	0.013281
407.3842	0.013682
408.0376	0.012816
408.6911	0.014949
409.3448	0.013872
409.9985	0.014252
410.6524	0.015857
411.3064	0.014336
411.9605	0.014970
412.6147	0.017335
413.2690	0.017630
413.9234	0.016722
414.5780	0.016617
415.2326	0.017588
415.8874	0.017694
416.5423	0.018686
417.1973	0.018665
417.8524	0.018517
418.5077	0.018137
419.1630	0.017250
419.8185	0.020734
420.4741	0.021578
421.1298	0.021853
421.7856	0.024978
422.4415	0.025189
423.0975	0.023732
423.7536	0.022676
424.4099	0.022993
425.0663	0.022381
425.7228	0.022275
426.3793	0.022486
427.0361	0.021198
427.6929	0.023141
428.3498	0.023099
429.0068	0.022149
429.6640	0.027807
430.3213	0.027533
430.9787	0.027849
431.6362	0.022423
432.2938	0.023795
432.9515	0.022698
433.6093	0.023078
434.2673	0.025738
434.9253	0.025548
435.5835	0.024619
436.2418	0.025590
436.9001	0.024492
437.5586	0.023795
438.2173	0.024366
438.8760	0.026202
439.5348	0.025041
440.1938	0.023922
440.8528	0.025231
441.5120	0.029496
442.1713	0.030277
442.8307	0.028377
443.4902	0.026836
444.1498	0.029707
444.8095	0.024957
445.4694	0.025316
446.1293	0.026540
446.7894	0.026899
447.4496	0.026477
448.1098	0.025949
448.7702	0.024070
449.4307	0.023415
450.0914	0.022824
450.7521	0.025400
451.4129	0.024070
452.0739	0.023289
452.7349	0.020818
453.3961	0.020459
454.0574	0.020122
454.7188	0.019277
455.3803	0.019742
456.0419	0.019932
456.7036	0.020417
457.3654	0.018264
458.0274	0.019615
458.6894	0.020122
459.3516	0.018200
460.0138	0.019932
460.6762	0.017356
461.3387	0.017546
462.0013	0.016448
462.6640	0.016870
463.3268	0.015371
463.9897	0.015878
464.6528	0.015814
465.3159	0.015118
465.9792	0.017503
466.6425	0.013640
467.3060	0.013260
467.9696	0.012014
468.6333	0.012626
469.2970	0.011528
469.9610	0.011254
470.6250	0.009290
471.2891	0.009501
471.9533	0.008593
472.6177	0.008087
473.2821	0.009227
473.9467	0.009691
474.6113	0.009480
475.2761	0.007685
475.9410	0.007622
476.6060	0.009818
477.2711	0.005785
477.9363	0.008488
478.6016	0.007854
479.2670	0.008277
479.9325	0.006334
480.5982	0.007327
481.2639	0.008192
481.9298	0.008213
482.5957	0.006693
483.2618	0.006398
483.9280	0.005785
484.5943	0.007685
485.2606	0.007685
485.9271	0.019108
486.5937	0.014379
487.2605	0.010367
487.9273	0.004983
488.5942	0.005110
489.2612	0.004202
489.9284	0.003716
490.5956	0.004033
491.2630	0.005469
491.9304	0.004413
492.5980	0.004286
493.2657	0.003632
493.9334	0.005067
494.6013	0.003632
495.2693	0.004244
495.9374	0.003674
496.6056	0.005616
497.2739	0.003885
497.9423	0.004328
498.6109	0.002935
499.2795	0.004265
499.9482	0.004708
500.6171	0.003653
501.2860	0.003442
501.9551	0.004054
502.6242	0.002745
503.2935	0.003674
503.9628	0.002660
504.6323	0.003779
505.3019	0.003484
505.9716	0.002111
506.6414	0.003674
507.3113	0.003125
507.9813	0.002428
508.6514	0.003969
509.3216	0.001942
509.9919	0.002154
510.6623	0.001668
511.3329	0.004645
512.0035	0.003167
512.6742	0.002829
513.3451	0.002301
514.0160	0.002703
514.6871	0.002998
515.3582	0.005215
516.0295	0.003230
516.7008	0.003885
517.3723	0.002808
518.0439	0.003294
518.7155	0.002745
519.3873	0.003801
520.0592	0.003104
520.7312	0.002998
521.4033	0.004476
522.0755	0.004413
522.7478	0.003779
523.4202	0.002639
524.0927	0.003273
524.7653	0.002956
525.4380	0.004413
526.1108	0.003758
526.7837	0.003463
527.4568	0.003779
528.1299	0.005131
528.8031	0.004181
529.4765	0.005405
530.1499	0.003843
530.8234	0.006017
531.4971	0.004603
532.1708	0.005300
532.8447	0.005110
533.5186	0.006524
534.1927	0.007876
534.8668	0.008572
535.5411	0.008129
536.2155	0.009480
536.8899	0.006946
537.5645	0.008298
538.2392	0.010177
538.9139	0.009628
539.5888	0.009163
540.2638	0.010198
540.9389	0.011486
541.6140	0.011866
542.2893	0.011402
542.9647	0.012183
543.6402	0.013956
544.3158	0.014083
544.9915	0.013450
545.6673	0.015139
546.3432	0.013070
547.0192	0.013977
547.6953	0.017060
548.3715	0.021557
549.0478	0.019720
549.7242	0.018221
550.4007	0.018770
551.0773	0.017419
551.7540	0.019024
552.4308	0.021283
553.1077	0.020459
553.7847	0.023521
554.4618	0.022951
555.1390	0.024851
555.8163	0.025379
556.4937	0.026012
557.1712	0.025358
557.8488	0.027723
558.5266	0.025020
559.2044	0.026012
559.8823	0.027976
560.5603	0.030763
561.2384	0.033740
561.9166	0.034437
562.5949	0.031903
563.2733	0.036506
563.9519	0.035598
564.6305	0.038829
565.3092	0.038786
565.9880	0.041151
566.6669	0.040666
567.3459	0.049702
568.0250	0.054812
568.7043	0.061611
569.3836	0.076053
570.0630	0.100777
570.7425	0.104514
571.4221	0.123137
572.1018	0.133630
572.7816	0.120582
573.4615	0.137177
574.1415	0.157954
574.8216	0.171171
575.5018	0.175035
576.1821	0.155589
576.8626	0.176724
577.5431	0.191250
578.2237	0.240488
578.9044	0.199844
579.5851	0.200625
580.2660	0.209810
580.9470	0.206347
581.6281	0.317427
582.3093	0.301444
582.9906	0.240889
583.6720	0.195684
584.3535	0.198936
585.0351	0.223766
585.7167	0.234133
586.3985	0.201047
587.0804	0.213526
587.7624	0.227419
588.4445	0.203116
589.1266	0.174359
589.8089	0.164098
590.4913	0.150268
591.1737	0.133419
591.8563	0.133989
592.5389	0.153309
593.2217	0.200773
593.9046	0.192285
594.5875	0.167138
595.2705	0.197500
595.9537	0.176259
596.6369	0.143638
597.3203	0.150374
598.0037	0.147228
598.6872	0.155969
599.3709	0.187281
600.0546	0.180419
600.7384	0.179279
601.4223	0.187323
602.1064	0.170981
602.7905	0.170474
603.4747	0.181981
604.1590	0.173747
604.8434	0.159727
605.5279	0.162937
606.2125	0.174803
606.8972	0.156455
607.5819	0.157595
608.2668	0.147988
608.9518	0.143089
609.6369	0.135172
610.3220	0.152190
611.0073	0.136924
611.6927	0.140112
612.3781	0.129218
613.0637	0.132026
613.7493	0.126937
614.4351	0.124340
615.1209	0.128626
615.8068	0.128098
616.4929	0.112981
617.1790	0.110321
617.8652	0.112200
618.5515	0.099447
619.2379	0.092310
619.9244	0.096090
620.6110	0.094696
621.2977	0.077087
621.9845	0.083991
622.6714	0.086631
623.3584	0.089988
624.0454	0.084055
624.7326	0.091276
625.4199	0.083379
626.1072	0.079199
626.7947	0.070584
627.4822	0.071196
628.1698	0.063870
628.8576	0.057852
629.5454	0.062983
630.2333	0.060133
630.9213	0.055720
631.6094	0.053249
632.2976	0.052320
632.9859	0.044318
633.6743	0.046134
634.3628	0.044698
635.0514	0.041848
635.7400	0.043685
636.4288	0.046028
637.1177	0.045374
637.8066	0.040623
638.4957	0.042840
639.1848	0.039927
639.8740	0.036875
640.5633	0.038353
641.2528	0.035084
641.9423	0.033591
642.6319	0.029630
643.3216	0.028098
644.0113	0.030216
644.7012	0.026499
645.3912	0.027889
646.0812	0.025792
646.7714	0.025895
647.4616	0.024930
648.1520	0.027520
648.8424	0.033374
649.5329	0.034142
650.2236	0.031001
650.9143	0.029286
651.6051	0.030340
652.2960	0.031633
652.9870	0.033700
653.6780	0.032921
654.3692	0.032769
655.0605	0.066383
655.7518	0.960013
656.4433	1.000000
657.1348	0.870916
657.8264	0.532767
658.5181	0.414814
659.2099	0.330317
659.9018	0.099046
660.5938	0.030261
661.2859	0.024228
661.9781	0.022892
662.6704	0.023680
663.3627	0.022741
664.0552	0.020841
664.7477	0.023243
665.4403	0.024050
666.1330	0.023776
666.8259	0.023544
667.5188	0.020398
668.2117	0.021405
668.9048	0.022676
669.5980	0.020354
670.2913	0.023859
670.9846	0.023690
671.6781	0.028821
672.3716	0.035556
673.0652	0.031798
673.7589	0.029686
674.4527	0.027279
675.1466	0.027807
675.8406	0.025421
676.5347	0.023183
677.2288	0.024344
677.9231	0.026540
678.6174	0.030636
679.3119	0.032283
680.0064	0.034838
680.7010	0.032790
681.3957	0.036759
682.0905	0.031924
682.7854	0.029686
683.4803	0.030784
684.1754	0.032769
684.8705	0.038998
685.5658	0.042228
686.2611	0.043537
686.9565	0.043030
687.6520	0.042291
688.3476	0.040159
689.0433	0.036527
689.7390	0.038026
690.4349	0.036232
691.1308	0.037330
691.8269	0.038364
692.5230	0.037477
693.2192	0.038491
693.9155	0.037097
694.6119	0.032135
695.3083	0.033825
696.0049	0.030679
696.7016	0.035999
697.3983	0.038090
698.0951	0.038153
698.7920	0.037773
699.4890	0.033487
700.1861	0.032410
700.8833	0.031967
701.5806	0.028483
702.2779	0.027828
702.9753	0.032473
703.6729	0.027490
704.3705	0.029011
705.0682	0.023669
705.7660	0.023352
706.4638	0.029581
707.1618	0.039103
707.8599	0.038660
708.5580	0.033212
709.2562	0.033972
709.9545	0.035239
710.6529	0.034226
711.3514	0.032917
712.0500	0.028778
712.7486	0.029707
713.4474	0.029581
714.1462	0.033276
714.8451	0.034986
715.5441	0.031967
716.2432	0.029834
716.9424	0.029707
717.6416	0.026667
718.3410	0.029011
719.0404	0.030362
719.7399	0.029538
720.4395	0.027892
721.1392	0.029180
721.8390	0.029454
722.5388	0.028905
723.2388	0.026941
723.9388	0.029264
724.6389	0.028293
725.3391	0.032473
726.0394	0.033423
726.7398	0.033719
727.4403	0.031038
728.1408	0.035218
728.8414	0.033423
729.5421	0.037773
730.2429	0.036591
730.9438	0.041552
731.6448	0.041742
732.3458	0.041024
733.0470	0.043790
733.7482	0.044086
734.4495	0.051919
735.1509	0.049407
735.8524	0.047633
736.5539	0.050040
737.2556	0.048858
737.9573	0.040264
738.6591	0.040328
739.3610	0.046810
740.0630	0.042629
740.7651	0.040750
741.4672	0.036063
742.1695	0.035514
742.8718	0.035345
743.5742	0.031291
744.2767	0.028525
744.9792	0.029961
745.6819	0.026815
746.3846	0.030003
747.0874	0.029285
747.7903	0.031734
748.4933	0.028272
749.1964	0.029897
749.8995	0.035493
750.6028	0.040243
751.3061	0.038153
752.0095	0.041447
752.7130	0.038026
753.4166	0.037604
754.1202	0.041489
754.8239	0.040074
755.5278	0.041383
756.2317	0.045289
756.9356	0.049913
757.6397	0.059900
758.3438	0.057156
759.0481	0.055593
759.7524	0.061273
760.4568	0.064588
761.1613	0.062202
761.8658	0.053862
762.5705	0.051539
763.2752	0.051370
763.9800	0.049892
764.6849	0.059267
765.3898	0.055234
766.0949	0.050103
766.8000	0.041447
767.5052	0.038786
768.2105	0.042545
768.9159	0.048077
769.6214	0.046430
770.3269	0.045543
771.0325	0.050610
771.7382	0.046007
772.4440	0.042207
773.1499	0.039293
773.8558	0.037034
774.5618	0.032135
775.2679	0.031460
775.9741	0.026224
776.6804	0.023268
777.3868	0.024724
778.0932	0.024112
778.7997	0.027047
779.5063	0.033613
780.2130	0.027976
780.9197	0.030848
781.6265	0.037118
782.3335	0.034289
783.0405	0.032241
783.7475	0.034162
784.4547	0.029581
785.1619	0.028652
785.8692	0.030341
786.5766	0.028018
787.2841	0.027976
787.9917	0.028799
788.6993	0.033360
789.4070	0.030995
790.1148	0.025442
790.8227	0.024851
791.5306	0.024450
792.2387	0.022022
792.9468	0.023458
793.6550	0.022740
794.3632	0.032621
795.0716	0.032452
795.7800	0.028124
796.4885	0.024218
797.1971	0.021832
797.9058	0.024724
798.6145	0.024133
799.3233	0.022402
800.0322	0.019446
800.7412	0.018728
801.4503	0.020481
802.1594	0.017862
802.8686	0.017356
803.5779	0.019235
804.2873	0.016237
804.9968	0.017926
805.7063	0.016490
806.4159	0.023880
807.1256	0.024239
807.8354	0.022529
808.5452	0.022149
809.2551	0.023795
809.9651	0.019594
810.6752	0.019530
811.3853	0.017440
812.0956	0.014780
812.8059	0.014273
813.5163	0.016469
814.2267	0.017250
814.9373	0.016216
815.6479	0.015793
816.3586	0.013513
817.0694	0.014400
817.7802	0.013133
818.4912	0.012521
819.2022	0.013640
819.9133	0.011317
820.6244	0.015667
821.3357	0.015582
822.0470	0.013661
822.7584	0.013724
823.4698	0.011486
824.1814	0.012816
824.8930	0.011613
825.6047	0.012880
826.3165	0.011296
827.0283	0.013893
827.7402	0.010853
828.4522	0.012288
829.1643	0.012626
829.8765	0.011359
830.5887	0.010092
831.3010	0.009691
832.0134	0.006778
832.7259	0.010008
833.4384	0.009544
834.1510	0.010219
834.8637	0.010705
835.5765	0.010156
836.2893	0.008741
837.0022	0.006799
837.7152	0.005511
838.4283	0.007284
839.1414	0.006588
839.8546	0.007284
840.5679	0.006524
841.2813	0.007073
841.9947	0.006208
842.7082	0.006735
843.4218	0.003695
844.1355	0.005870
844.8492	0.003442
845.5631	0.005933
846.2770	0.005152
846.9909	0.006250
847.7050	0.005110
848.4191	0.005152
849.1333	0.005025
849.8475	0.005152
850.5619	0.004561
851.2763	0.004181
851.9908	0.004898
852.7053	0.009163
853.4200	0.013872
854.1347	0.011951
854.8495	0.014020
855.5643	0.012352
856.2792	0.011929
856.9942	0.011972
857.7093	0.010367
858.4245	0.010663
859.1397	0.008678
859.8550	0.010114
860.5704	0.008023
861.2858	0.006419
862.0013	0.006292
862.7169	0.004941
863.4326	0.007094
864.1483	0.006799
864.8642	0.006144
865.5800	0.006482
866.2960	0.005088
867.0120	0.006693
867.7281	0.005616
868.4443	0.006461
869.1606	0.004540
869.8769	0.004413
870.5933	0.005110
871.3097	0.006588
872.0263	0.004835
872.7429	0.004181
873.4596	0.004793
874.1763	0.004814
874.8932	0.005785
875.6101	0.005616
876.3270	0.004117
877.0441	0.005680
877.7612	0.005553
878.4784	0.006461
879.1957	0.006946
879.9130	0.007242
880.6304	0.008783
881.3479	0.008657
882.0654	0.007369
882.7831	0.006081
883.5007	0.005891
884.2185	0.006398
884.9363	0.005553
885.6542	0.006039
886.3722	0.006186
887.0903	0.005067
887.8084	0.005996
888.5266	0.006186
889.2448	0.005553
889.9632	0.005532
890.6816	0.003843
891.4001	0.005215
892.1186	0.005110
892.8372	0.005680
893.5559	0.004265
894.2747	0.004540
894.9935	0.005849
895.7124	0.004371
896.4314	0.006398
897.1504	0.005827
897.8695	0.005447
898.5887	0.005384
899.3079	0.004751
900.0272	0.003758
900.7466	0.005131
901.4661	0.003927
902.1856	0.003568
902.9052	0.004349
903.6249	0.004202
904.3446	0.005342
905.0644	0.004835
905.7843	0.003758
906.5043	0.004307
907.2243	0.003674
907.9444	0.005532
908.6645	0.003864
909.3847	0.002470
910.1050	0.004096
910.8254	0.005553
911.5458	0.003442
912.2663	0.005300
912.9869	0.005363
913.7075	0.002618
914.4283	0.004054
915.1490	0.003801
915.8699	0.002808
916.5908	0.004096
917.3118	0.004941
918.0328	0.005194
918.7539	0.002407
919.4751	0.003737
920.1964	0.001752
920.9177	0.004687
921.6391	0.004202
922.3606	0.004328
923.0821	0.003864
923.8037	0.003442
924.5254	0.002935
925.2471	0.002365
925.9689	0.002872
926.6908	0.003019
927.4127	0.002154
928.1347	0.002745
928.8568	0.000992
929.5789	0.003547
930.3011	0.001140
931.0234	0.002597
931.7457	0.003294
932.4681	0.001837
933.1906	0.002386
933.9131	0.003526
934.6358	0.002133
935.3584	0.000760
936.0812	0.000443
936.8040	0.002365
937.5269	0.000232
938.2498	0.001267
938.9728	0.001795
939.6959	0.001246
940.4190	0.002365
941.1422	0.001098
941.8655	0.001752
942.5889	0.000422
943.3123	0.001161
944.0357	0.000950
944.7593	0.001499
945.4829	0.001182
946.2066	0.001246
946.9303	0.001415
947.6541	0.002196
948.3780	0.001752
949.1019	0.000148
949.8259	0.000317
950.5500	0.001013
951.2741	0.000127
951.9983	0.002745
952.7226	0.001647
953.4469	0.002344
954.1713	0.000211
954.8958	0.000380
955.6203	0.001351
956.3449	0.001710
957.0696	-0.000106
957.7943	-0.000063
958.5191	-0.000084
959.2439	0.002534
959.9688	0.002534
960.6938	0.001098
961.4189	0.001731
962.1440	0.001562
962.8692	0.001457
963.5944	0.001879
964.3197	0.000021
965.0451	0.000929
965.7705	0.000718
966.4960	0.001372
967.2216	-0.000528
967.9472	0.000084
968.6729	0.000549
969.3987	0.000401
970.1245	0.000106
970.8504	0.001415
971.5763	0.000823
972.3023	0.000190
973.0284	0.000211
973.7545	0.000000
974.4807	-0.000169
975.2070	0.002069
975.9333	0.000655
976.6597	0.000802
977.3862	-0.001415
978.1127	0.000845
978.8393	-0.001098
979.5659	0.001140
980.2926	0.001351
981.0194	0.002111
981.7462	-0.000422
982.4731	0.000633
983.2001	-0.000908
983.9271	0.001098
984.6542	0.000591
985.3814	0.000084
986.1086	-0.000465
986.8358	0.000971
987.5632	-0.000211
988.2906	0.000528
989.0180	0.001584
989.7456	0.001605
990.4732	0.000718
991.2008	0.001457
991.9285	-0.000380
992.6563	0.001605
993.3841	-0.000063
994.1120	0.001330
994.8400	0.001182
995.5680	-0.000443
996.2961	-0.000655
997.0242	0.000106
997.7524	0.000338
998.4807	-0.000380
999.2090	-0.000486
999.9374	0.000823
1000.67	-0.000528
1001.39	-0.001394
1002.12	0.000338
1002.85	-0.000380
1003.58	-0.000486
1004.31	0.000422
1005.04	0.000042
1005.77	-0.001499
1006.5	0.000465
1007.22	-0.000950
1007.95	0.000401
1008.68	0.000042
1009.41	0.000422
1010.14	-0.000084
1010.87	0.000443
1011.6	0.001900
1012.33	0.000528
1013.06	-0.001309
1013.79	0.001225
1014.52	0.000296
1015.25	0.001309
1015.98	-0.000422
1016.71	-0.000253
1017.44	-0.001647
1018.17	-0.001056
1018.9	0.000317
1019.63	0.000528
1020.36	0.000106
1021.09	0.000992
1021.82	-0.000211
1022.55	0.000465
1023.03	-0.000528