File: Auto_Polymerization/Spectra/MRG-061-F-2_spectra_while_stopped/spectrum_2025-06-19_11-23-30.txt
# Wavelength (nm)	Intensity (a.u.)
197.7802	0.000588
198.3922	-0.000067
199.0044	0.001601
199.6168	0.000946
200.2292	0.000208
200.8418	-0.000151
201.4546	0.000630
202.0674	-0.001882
202.6805	0.000841
203.2936	-0.000341
203.9069	0.000419
204.5203	0.000545
205.1338	-0.000510
205.7475	0.000482
206.3614	0.000165
206.9753	0.000820
207.5894	0.001474
208.2036	-0.000426
208.8180	0.001685
209.4325	-0.000046
210.0471	0.001875
210.6618	0.000630
211.2767	-0.000088
211.8918	0.000566
212.5069	0.000398
213.1222	0.002128
213.7376	0.001052
214.3532	0.001601
214.9689	0.000271
215.5847	0.000524
216.2007	0.000989
216.8168	0.001580
217.4330	0.000989
218.0494	0.000144
218.6659	0.001052
219.2825	0.000355
219.8992	0.001073
220.5161	0.000989
221.1332	-0.000046
221.7503	0.000039
222.3676	-0.000215
222.9850	0.001453
223.6026	0.000482
224.2203	0.000883
224.8381	0.001558
225.4561	0.000566
226.0742	0.000123
226.6924	0.000060
227.3107	-0.000004
227.9292	0.000292
228.5478	-0.000552
229.1666	0.000018
229.7855	0.000461
230.4045	-0.000046
231.0236	-0.000109
231.6429	0.000440
232.2623	0.000524
232.8818	-0.001186
233.5015	-0.000426
234.1213	0.000735
234.7413	0.001516
235.3613	-0.000025
235.9815	0.001073
236.6018	0.000672
237.2223	0.000334
237.8429	0.001136
238.4636	0.001073
239.0845	0.000292
239.7055	0.001010
240.3266	0.000376
240.9478	0.001453
241.5692	-0.000700
242.1907	-0.000236
242.8124	0.000081
243.4341	0.000292
244.0560	-0.000531
244.6781	0.000735
245.3002	0.001622
245.9225	0.001221
246.5449	0.000482
247.1675	0.000440
247.7902	0.000018
248.4130	0.000419
249.0359	-0.000721
249.6590	0.001706
250.2822	-0.000236
250.9056	-0.000616
251.5290	-0.000552
252.1526	0.000967
252.7763	-0.000911
253.4002	0.001390
254.0242	-0.000278
254.6483	0.000756
255.2725	-0.000193
255.8969	0.001938
256.5214	0.000144
257.1460	0.000334
257.7708	-0.000109
258.3957	0.001347
259.0207	0.000503
259.6459	0.001347
260.2711	0.000440
260.8965	0.001432
261.5221	0.000081
262.1477	-0.000278
262.7735	-0.000341
263.3995	0.000208
264.0255	0.000060
264.6517	-0.001587
265.2780	0.000102
265.9044	-0.000236
266.5310	-0.000489
267.1577	0.000250
267.7845	0.000735
268.4114	0.001073
269.0385	-0.000827
269.6657	0.000102
270.2931	0.000060
270.9205	0.001432
271.5481	-0.000700
272.1758	-0.000700
272.8037	-0.000468
273.4316	0.001073
274.0597	0.000545
274.6880	0.001622
275.3163	-0.000405
275.9448	0.000081
276.5734	0.000144
277.2022	0.002065
277.8310	0.001157
278.4600	0.000820
279.0891	0.000545
279.7184	0.000398
280.3477	-0.000742
280.9772	0.000144
281.6069	-0.000236
282.2366	0.001432
282.8665	-0.000172
283.4965	-0.000193
284.1266	0.000735
284.7569	0.000186
285.3873	0.000609
286.0178	0.001263
286.6484	0.001580
287.2792	0.001179
287.9101	-0.000679
288.5411	0.001157
289.1723	0.000186
289.8035	0.000292
290.4349	0.001052
291.0665	0.001157
291.6981	-0.000278
292.3299	0.000165
292.9618	-0.000088
293.5938	0.000376
294.2260	-0.000215
294.8582	0.001938
295.4906	-0.000025
296.1232	-0.000172
296.7558	0.000271
297.3886	0.001390
298.0215	-0.000742
298.6545	0.000355
299.2877	-0.000109
299.9210	-0.000827
300.5544	0.000018
301.1879	0.000588
301.8215	0.000777
302.4553	0.001537
303.0892	0.000186
303.7233	0.001284
304.3574	0.000482
304.9917	0.001200
305.6261	0.000229
306.2606	0.000545
306.8953	0.000376
307.5301	0.001242
308.1650	0.000883
308.8000	0.000186
309.4351	0.000018
310.0704	0.000904
310.7058	0.001347
311.3413	0.000355
311.9770	-0.000278
312.6127	0.001094
313.2486	-0.001376
313.8846	0.001347
314.5208	-0.000299
315.1570	0.000630
315.7934	0.000714
316.4299	0.000461
317.0666	0.000039
317.7033	0.000271
318.3402	-0.000278
318.9772	0.001368
319.6143	0.001073
320.2516	0.000102
320.8890	0.001685
321.5265	0.000904
322.1641	-0.000109
322.8018	-0.000025
323.4397	0.000039
324.0777	-0.001017
324.7158	-0.000700
325.3540	0.001558
325.9924	0.000777
326.6308	0.001326
327.2694	0.000461
327.9082	0.001896
328.5470	0.000524
329.1860	-0.000616
329.8251	0.000588
330.4643	0.001347
331.1036	0.000566
331.7431	0.000946
332.3826	0.001263
333.0223	0.000672
333.6622	0.001411
334.3021	0.000208
334.9422	0.000229
335.5823	0.000165
336.2227	0.000102
336.8631	0.000609
337.5036	-0.000447
338.1443	0.000524
338.7851	-0.000236
339.4260	-0.000383
340.0670	0.000102
340.7082	0.000946
341.3495	0.000123
341.9909	0.002171
342.6324	0.001136
343.2740	0.001685
343.9158	0.000693
344.5577	0.000060
345.1997	0.000250
345.8418	0.000461
346.4840	0.000566
347.1264	0.000588
347.7689	-0.000109
348.4115	0.001516
349.0542	0.000820
349.6971	-0.000911
350.3400	0.001094
350.9831	0.001263
351.6263	0.000862
352.2696	0.001157
352.9131	0.001094
353.5566	-0.000341
354.2003	0.000018
354.8441	0.000419
355.4881	-0.000996
356.1321	0.002677
356.7763	0.001094
357.4206	0.001010
358.0650	-0.001080
358.7095	-0.000552
359.3541	0.001411
359.9989	-0.000700
360.6438	0.001284
361.2888	0.000503
361.9339	0.000735
362.5791	-0.000278
363.2245	0.000588
363.8699	0.000039
364.5155	-0.000953
365.1612	0.000271
365.8071	-0.001587
366.4530	0.000946
367.0991	-0.000721
367.7453	0.001390
368.3916	-0.001671
369.0380	0.000376
369.6845	-0.001228
370.3312	0.000925
370.9780	0.000820
371.6249	0.001221
372.2719	-0.000172
372.9190	0.001179
373.5663	-0.000405
374.2136	0.000060
374.8611	0.000398
375.5087	0.001284
376.1564	0.001305
376.8043	-0.000362
377.4522	-0.000595
378.1003	0.000313
378.7485	0.000777
379.3968	0.001938
380.0452	-0.000721
380.6938	0.000165
381.3424	-0.000172
381.9912	0.000376
382.6401	0.001242
383.2891	0.001010
383.9382	0.000060
384.5875	0.000018
385.2368	-0.000869
385.8863	0.001221
386.5359	0.000925
387.1856	0.000672
387.8355	0.000630
388.4854	0.001812
389.1355	0.002804
389.7856	0.001305
390.4359	0.002339
391.0863	0.003268
391.7369	0.002382
392.3875	0.002952
393.0383	0.003627
393.6891	0.006878
394.3401	0.005358
394.9912	0.003923
395.6425	0.005400
396.2938	0.006835
396.9453	0.005379
397.5968	0.009178
398.2485	0.009052
398.9003	0.009579
399.5522	0.010382
400.2043	0.010994
400.8564	0.010951
401.5087	0.011817
402.1610	0.011036
402.8135	0.014033
403.4661	0.009495
404.1189	0.012155
404.7717	0.014160
405.4246	0.014139
406.0777	0.015194
406.7309	0.014413
407.3842	0.014160
408.0376	0.015870
408.6911	0.017305
409.3448	0.017157
409.9985	0.016651
410.6524	0.016841
411.3064	0.017326
411.9605	0.018191
412.6147	0.018930
413.2690	0.019627
413.9234	0.016904
414.5780	0.020176
415.2326	0.020281
415.8874	0.020957
416.5423	0.020682
417.1973	0.020218
417.8524	0.022265
418.5077	0.021991
419.1630	0.020851
419.8185	0.021273
420.4741	0.025241
421.1298	0.025748
421.7856	0.028640
422.4415	0.026782
423.0975	0.026318
423.7536	0.025410
424.4099	0.027268
425.0663	0.024988
425.7228	0.024249
426.3793	0.022624
427.0361	0.023701
427.6929	0.024038
428.3498	0.024123
429.0068	0.026149
429.6640	0.029210
430.3213	0.030729
430.9787	0.030138
431.6362	0.027352
432.2938	0.024038
432.9515	0.024038
433.6093	0.026993
434.2673	0.028598
434.9253	0.025220
435.5835	0.024840
436.2418	0.027563
436.9001	0.025854
437.5586	0.026001
438.2173	0.025431
438.8760	0.025875
439.5348	0.026698
440.1938	0.025431
440.8528	0.024693
441.5120	0.031046
442.1713	0.030181
442.8307	0.028471
443.4902	0.029315
444.1498	0.030835
444.8095	0.028028
445.4694	0.029484
446.1293	0.029189
446.7894	0.028344
447.4496	0.027078
448.1098	0.025980
448.7702	0.026044
449.4307	0.026677
450.0914	0.026466
450.7521	0.026065
451.4129	0.023236
452.0739	0.023004
452.7349	0.022139
453.3961	0.021400
454.0574	0.020788
454.7188	0.019226
455.3803	0.020218
456.0419	0.019880
456.7036	0.021421
457.3654	0.020935
458.0274	0.021505
458.6894	0.021358
459.3516	0.020745
460.0138	0.020471
460.6762	0.017326
461.3387	0.018550
462.0013	0.015511
462.6640	0.014139
463.3268	0.016081
463.9897	0.017242
464.6528	0.018339
465.3159	0.017136
465.9792	0.017157
466.6425	0.016503
467.3060	0.013505
467.9696	0.012830
468.6333	0.012957
469.2970	0.011944
469.9610	0.010213
470.6250	0.011099
471.2891	0.010023
471.9533	0.009706
472.6177	0.010466
473.2821	0.009769
473.9467	0.010339
474.6113	0.008651
475.2761	0.008777
475.9410	0.009622
476.6060	0.010149
477.2711	0.009368
477.9363	0.008524
478.6016	0.006751
479.2670	0.008334
479.9325	0.006329
480.5982	0.007553
481.2639	0.008144
481.9298	0.007870
482.5957	0.006371
483.2618	0.006751
483.9280	0.007279
484.5943	0.007659
485.2606	0.007785
485.9271	0.019648
486.5937	0.015447
487.2605	0.011754
487.9273	0.006645
488.5942	0.004345
489.2612	0.005231
489.9284	0.006688
490.5956	0.005126
491.2630	0.004746
491.9304	0.005337
492.5980	0.005062
493.2657	0.003289
493.9334	0.005928
494.6013	0.003247
495.2693	0.003733
495.9374	0.003711
496.6056	0.004957
497.2739	0.004281
497.9423	0.004408
498.6109	0.005062
499.2795	0.003310
499.9482	0.003564
500.6171	0.004725
501.2860	0.003036
501.9551	0.002487
502.6242	0.003057
503.2935	0.004767
503.9628	0.002930
504.6323	0.002719
505.3019	0.003142
505.9716	0.004197
506.6414	0.001770
507.3113	0.004471
507.9813	0.003184
508.6514	0.003163
509.3216	0.003163
509.9919	0.003184
510.6623	0.003268
511.3329	0.002740
512.0035	0.002804
512.6742	0.003268
513.3451	0.002023
514.0160	0.002698
514.6871	0.002825
515.3582	0.004260
516.0295	0.002318
516.7008	0.004408
517.3723	0.002846
518.0439	0.003543
518.7155	0.004281
519.3873	0.004429
520.0592	0.004028
520.7312	0.001917
521.4033	0.003880
522.0755	0.004872
522.7478	0.003458
523.4202	0.003353
524.0927	0.003711
524.7653	0.004260
525.4380	0.003564
526.1108	0.004260
526.7837	0.004619
527.4568	0.003564
528.1299	0.003585
528.8031	0.006244
529.4765	0.005632
530.1499	0.005295
530.8234	0.005590
531.4971	0.005210
532.1708	0.006054
532.8447	0.006223
533.5186	0.007279
534.1927	0.009579
534.8668	0.007638
535.5411	0.008165
536.2155	0.008165
536.8899	0.006899
537.5645	0.008693
538.2392	0.009727
538.9139	0.009854
539.5888	0.010234
540.2638	0.009685
540.9389	0.012155
541.6140	0.011542
542.2893	0.011986
542.9647	0.015342
543.6402	0.013379
544.3158	0.015279
544.9915	0.016017
545.6673	0.014603
546.3432	0.015827
547.0192	0.014751
547.6953	0.018466
548.3715	0.019606
549.0478	0.020450
549.7242	0.018635
550.4007	0.020408
551.0773	0.018719
551.7540	0.018846
552.4308	0.023954
553.1077	0.021738
553.7847	0.023574
554.4618	0.022096
555.1390	0.023173
555.8163	0.025431
556.4937	0.027774
557.1712	0.023637
557.8488	0.027584
558.5266	0.026761
559.2044	0.024946
559.8823	0.027584
560.5603	0.031152
561.2384	0.036112
561.9166	0.035795
562.5949	0.031553
563.2733	0.034233
563.9519	0.036998
564.6305	0.040629
565.3092	0.042993
565.9880	0.039215
566.6669	0.041663
567.3459	0.049030
568.0250	0.056439
568.7043	0.065283
569.3836	0.077251
570.0630	0.098865
570.7425	0.108786
571.4221	0.126284
572.1018	0.138020
572.7816	0.118179
573.4615	0.137261
574.1415	0.160901
574.8216	0.171772
575.5018	0.172848
576.1821	0.156321
576.8626	0.180320
577.5431	0.195518
578.2237	0.238304
578.9044	0.201492
579.5851	0.198916
580.2660	0.207001
580.9470	0.201407
581.6281	0.315136
582.3093	0.303252
582.9906	0.240393
583.6720	0.196531
584.3535	0.197671
585.0351	0.228235
585.7167	0.229924
586.3985	0.204067
587.0804	0.213586
587.7624	0.230262
588.4445	0.202273
589.1266	0.178125
589.8089	0.161999
590.4913	0.151888
591.1737	0.131519
591.8563	0.130823
592.5389	0.152184
593.2217	0.202526
593.9046	0.189650
594.5875	0.171540
595.2705	0.197629
595.9537	0.172067
596.6369	0.143466
597.3203	0.153408
598.0037	0.146252
598.6872	0.151487
599.3709	0.183339
600.0546	0.179054
600.7384	0.180278
601.4223	0.188130
602.1064	0.166242
602.7905	0.172764
603.4747	0.188468
604.1590	0.177809
604.8434	0.154083
605.5279	0.164405
606.2125	0.173819
606.8972	0.155139
607.5819	0.160437
608.2668	0.150748
608.9518	0.144184
609.6369	0.133524
610.3220	0.150601
611.0073	0.141989
611.6927	0.139836
612.3781	0.130548
613.0637	0.132047
613.7493	0.128079
614.4351	0.128564
615.1209	0.126643
615.8068	0.132765
616.4929	0.114380
617.1790	0.109103
617.8652	0.109398
618.5515	0.103193
619.2379	0.091710
619.9244	0.094391
620.6110	0.094749
621.2977	0.074296
621.9845	0.081409
622.6714	0.084702
623.3584	0.090676
624.0454	0.087446
624.7326	0.089599
625.4199	0.085399
626.1072	0.078602
626.7947	0.070771
627.4822	0.072628
628.1698	0.067520
628.8576	0.060090
629.5454	0.064249
630.2333	0.061505
630.9213	0.056988
631.6094	0.052766
632.2976	0.052977
632.9859	0.046159
633.6743	0.045231
634.3628	0.043753
635.0514	0.042761
635.7400	0.043310
636.4288	0.047827
637.1177	0.043669
637.8066	0.042402
638.4957	0.043225
639.1848	0.043457
639.8740	0.039285
640.5633	0.034444
641.2528	0.036613
641.9423	0.032898
642.6319	0.029386
643.3216	0.030094
644.0113	0.030623
644.7012	0.027983
645.3912	0.030900
646.0812	0.026672
646.7714	0.025328
647.4616	0.024875
648.1520	0.029748
648.8424	0.030985
649.5329	0.033743
650.2236	0.030315
650.9143	0.030358
651.6051	0.030878
652.2960	0.031556
652.9870	0.032301
653.6780	0.033529
654.3692	0.034386
655.0605	0.067597
655.7518	0.958008
656.4433	1.000000
657.1348	0.861075
657.8264	0.532059
658.5181	0.412879
659.2099	0.333913
659.9018	0.102292
660.5938	0.031366
661.2859	0.024429
661.9781	0.022945
662.6704	0.024624
663.3627	0.022330
664.0552	0.024300
664.7477	0.025437
665.4403	0.023435
666.1330	0.023976
666.8259	0.020650
667.5188	0.021021
668.2117	0.021207
668.9048	0.022561
669.5980	0.021463
670.2913	0.024080
670.9846	0.023869
671.6781	0.028745
672.3716	0.035795
673.0652	0.033558
673.7589	0.031722
674.4527	0.030075
675.1466	0.027943
675.8406	0.026761
676.5347	0.027183
677.2288	0.023975
677.9231	0.029822
678.6174	0.031574
679.3119	0.033241
680.0064	0.037273
680.7010	0.035247
681.3957	0.034888
682.0905	0.033642
682.7854	0.029843
683.4803	0.031658
684.1754	0.033706
684.8705	0.040059
685.5658	0.045463
686.2611	0.041874
686.9565	0.044048
687.6520	0.043246
688.3476	0.038286
689.0433	0.037801
689.7390	0.038560
690.4349	0.035394
691.1308	0.038265
691.8269	0.037653
692.5230	0.036534
693.2192	0.042022
693.9155	0.038223
694.6119	0.033685
695.3083	0.035289
696.0049	0.031595
696.7016	0.037547
697.3983	0.038940
698.0951	0.039046
698.7920	0.037231
699.4890	0.034909
700.1861	0.031911
700.8833	0.032735
701.5806	0.031764
702.2779	0.030919
702.9753	0.030223
703.6729	0.028851
704.3705	0.028492
705.0682	0.025938
705.7660	0.025326
706.4638	0.031827
707.1618	0.038497
707.8599	0.035479
708.5580	0.039067
709.2562	0.033790
709.9545	0.035500
710.6529	0.036302
711.3514	0.035035
712.0500	0.030666
712.7486	0.029991
713.4474	0.033642
714.1462	0.035458
714.8451	0.035247
715.5441	0.034930
716.2432	0.032334
716.9424	0.028956
717.6416	0.027289
718.3410	0.030434
719.0404	0.030096
719.7399	0.029864
720.4395	0.028999
721.1392	0.028978
721.8390	0.030497
722.5388	0.027817
723.2388	0.026867
723.9388	0.029611
724.6389	0.027964
725.3391	0.032481
726.0394	0.034423
726.7398	0.033579
727.4403	0.032460
728.1408	0.035500
728.8414	0.033727
729.5421	0.038307
730.2429	0.036555
730.9438	0.040861
731.6448	0.045231
732.3458	0.041494
733.0470	0.041727
733.7482	0.046286
734.4495	0.052914
735.1509	0.046370
735.8524	0.050887
736.5539	0.048354
737.2556	0.048692
737.9573	0.044006
738.6591	0.041600
739.3610	0.047447
740.0630	0.045505
740.7651	0.040545
741.4672	0.034022
742.1695	0.037231
742.8718	0.036745
743.5742	0.031384
744.2767	0.029336
744.9792	0.030476
745.6819	0.027669
746.3846	0.029189
747.0874	0.030729
747.7903	0.031553
748.4933	0.027310
749.1964	0.030434
749.8995	0.035626
750.6028	0.040355
751.3061	0.038919
752.0095	0.040587
752.7130	0.038835
753.4166	0.038645
754.1202	0.042508
754.8239	0.041093
755.5278	0.041473
756.2317	0.045864
756.9356	0.050887
757.6397	0.059352
758.3438	0.056122
759.0481	0.053695
759.7524	0.059753
760.4568	0.062898
761.1613	0.063489
761.8658	0.053188
762.5705	0.047405
763.2752	0.048988
763.9800	0.049684
764.6849	0.057051
765.3898	0.057579
766.0949	0.049959
766.8000	0.042254
767.5052	0.037589
768.2105	0.043289
768.9159	0.050740
769.6214	0.046729
770.3269	0.045041
771.0325	0.047257
771.7382	0.045885
772.4440	0.041959
773.1499	0.039341
773.8558	0.035943
774.5618	0.031658
775.2679	0.031320
775.9741	0.029273
776.6804	0.026402
777.3868	0.026402
778.0932	0.024925
778.7997	0.028154
779.5063	0.032313
780.2130	0.029062
780.9197	0.029421
781.6265	0.033241
782.3335	0.034782
783.0405	0.032692
783.7475	0.034233
784.4547	0.031109
785.1619	0.029611
785.8692	0.029505
786.5766	0.030307
787.2841	0.028365
787.9917	0.029885
788.6993	0.031236
789.4070	0.030729
790.1148	0.026128
790.8227	0.026402
791.5306	0.025727
792.2387	0.025094
792.9468	0.020598
793.6550	0.023891
794.3632	0.031743
795.0716	0.033368
795.7800	0.029189
796.4885	0.024439
797.1971	0.020661
797.9058	0.022244
798.6145	0.024270
799.3233	0.022350
800.0322	0.018972
800.7412	0.019458
801.4503	0.019669
802.1594	0.015637
802.8686	0.016967
803.5779	0.017432
804.2873	0.018466
804.9968	0.017157
805.7063	0.019817
806.4159	0.021843
807.1256	0.021801
807.8354	0.024714
808.5452	0.022392
809.2551	0.022751
809.9651	0.019838
810.6752	0.018846
811.3853	0.019331
812.0956	0.016672
812.8059	0.014772
813.5163	0.016651
814.2267	0.018972
814.9373	0.019268
815.6479	0.015046
816.3586	0.015532
817.0694	0.013484
817.7802	0.014941
818.4912	0.014223
819.2022	0.013147
819.9133	0.012049
820.6244	0.014688
821.3357	0.014286
822.0470	0.014033
822.7584	0.014096
823.4698	0.012218
824.1814	0.011859
824.8930	0.011690
825.6047	0.012978
826.3165	0.012914
827.0283	0.014202
827.7402	0.013316
828.4522	0.013189
829.1643	0.013632
829.8765	0.011732
830.5887	0.009052
831.3010	0.009432
832.0134	0.010192
832.7259	0.009474
833.4384	0.009389
834.1510	0.011036
834.8637	0.009938
835.5765	0.009833
836.2893	0.009601
837.0022	0.008397
837.7152	0.009495
838.4283	0.008651
839.1414	0.005949
839.8546	0.008165
840.5679	0.007068
841.2813	0.008482
841.9947	0.007764
842.7082	0.005991
843.4218	0.004619
844.1355	0.005717
844.8492	0.006033
845.5631	0.006835
846.2770	0.004661
846.9909	0.005062
847.7050	0.007342
848.4191	0.006076
849.1333	0.004176
849.8475	0.005295
850.5619	0.005970
851.2763	0.005189
851.9908	0.004767
852.7053	0.008841
853.4200	0.011817
854.1347	0.014666
854.8495	0.014350
855.5643	0.013463
856.2792	0.013168
856.9942	0.012366
857.7093	0.008250
858.4245	0.011732
859.1397	0.009833
859.8550	0.008841
860.5704	0.007975
861.2858	0.008566
862.0013	0.007595
862.7169	0.006012
863.4326	0.007659
864.1483	0.006329
864.8642	0.007300
865.5800	0.005886
866.2960	0.005062
867.0120	0.006455
867.7281	0.004492
868.4443	0.004999
869.1606	0.004514
869.8769	0.006202
870.5933	0.004915
871.3097	0.006455
872.0263	0.006054
872.7429	0.004830
873.4596	0.006561
874.1763	0.005569
874.8932	0.005273
875.6101	0.007089
876.3270	0.005442
877.0441	0.005738
877.7612	0.007891
878.4784	0.007490
879.1957	0.008418
879.9130	0.008630
880.6304	0.008039
881.3479	0.006878
882.0654	0.005886
882.7831	0.006076
883.5007	0.007912
884.2185	0.006730
884.9363	0.007046
885.6542	0.007025
886.3722	0.007616
887.0903	0.005548
887.8084	0.005316
888.5266	0.006139
889.2448	0.005506
889.9632	0.004915
890.6816	0.005189
891.4001	0.005632
892.1186	0.005843
892.8372	0.004725
893.5559	0.004577
894.2747	0.003500
894.9935	0.005717
895.7124	0.004366
896.4314	0.006266
897.1504	0.004408
897.8695	0.003901
898.5887	0.005041
899.3079	0.006054
900.0272	0.005485
900.7466	0.004788
901.4661	0.004302
902.1856	0.005210
902.9052	0.004661
903.6249	0.004450
904.3446	0.005041
905.0644	0.002361
905.7843	0.004725
906.5043	0.005485
907.2243	0.004893
907.9444	0.003395
908.6645	0.003711
909.3847	0.004070
910.1050	0.002909
910.8254	0.004957
911.5458	0.002867
912.2663	0.004514
912.9869	0.005506
913.7075	0.004746
914.4283	0.003479
915.1490	0.003120
915.8699	0.003754
916.5908	0.004640
917.3118	0.004408
918.0328	0.004661
918.7539	0.004387
919.4751	0.005780
920.1964	0.004387
920.9177	0.003163
921.6391	0.003226
922.3606	0.002192
923.0821	0.002740
923.8037	0.004450
924.5254	0.001411
925.2471	0.003120
925.9689	0.003711
926.6908	0.002593
927.4127	0.002529
928.1347	0.004704
928.8568	0.003690
929.5789	0.001516
930.3011	0.003078
931.0234	0.003627
931.7457	0.000588
932.4681	0.002044
933.1906	0.001200
933.9131	0.003648
934.6358	0.002635
935.3584	0.003226
936.0812	0.001791
936.8040	0.000841
937.5269	0.001432
938.2498	0.001960
938.9728	0.002593
939.6959	-0.000004
940.4190	0.002740
941.1422	0.003057
941.8655	0.001685
942.5889	0.001580
943.3123	0.000946
944.0357	0.000946
944.7593	0.002171
945.4829	0.002952
946.2066	0.002424
946.9303	0.001368
947.6541	0.001748
948.3780	0.000609
949.1019	0.002804
949.8259	0.001347
950.5500	0.002698
951.2741	0.002086
951.9983	0.002424
952.7226	0.002677
953.4469	0.002825
954.1713	0.000651
954.8958	0.001242
955.6203	0.000630
956.3449	0.002192
957.0696	0.002740
957.7943	0.000524
958.5191	0.001263
959.2439	-0.000595
959.9688	0.001580
960.6938	0.001664
961.4189	0.001495
962.1440	0.001854
962.8692	-0.000552
963.5944	0.000588
964.3197	0.002128
965.0451	0.002276
965.7705	0.002023
966.4960	0.001368
967.2216	-0.000362
967.9472	0.001664
968.6729	-0.000004
969.3987	0.001664
970.1245	0.001136
970.8504	-0.000151
971.5763	0.001854
972.3023	-0.000405
973.0284	0.001136
973.7545	0.000651
974.4807	0.000376
975.2070	-0.000067
975.9333	0.001094
976.6597	0.000144
977.3862	0.000799
978.1127	0.001960
978.8393	0.000714
979.5659	0.001558
980.2926	0.000039
981.0194	0.000165
981.7462	0.000208
982.4731	0.001368
983.2001	0.000672
983.9271	0.000524
984.6542	0.000777
985.3814	0.000609
986.1086	-0.000236
986.8358	0.000461
987.5632	0.000524
988.2906	0.001052
989.0180	0.000208
989.7456	0.000461
990.4732	-0.001080
991.2008	0.000292
991.9285	0.000165
992.6563	0.001010
993.3841	-0.000172
994.1120	0.000018
994.8400	0.000482
995.5680	0.002361
996.2961	-0.000573
997.0242	0.001411
997.7524	0.000313
998.4807	0.001179
999.2090	0.000018
999.9374	0.000081
1000.67	-0.000679
1001.39	0.001094
1002.12	0.000862
1002.85	0.002234
1003.58	0.002339
1004.31	0.000672
1005.04	0.000799
1005.77	0.000524
1006.5	0.001284
1007.22	0.000777
1007.95	0.000841
1008.68	0.000735
1009.41	0.000609
1010.14	-0.000447
1010.87	0.000841
1011.6	-0.000595
1012.33	0.000925
1013.06	0.000883
1013.79	-0.000046
1014.52	0.001411
1015.25	0.000799
1015.98	-0.000447
1016.71	0.000735
1017.44	0.000777
1018.17	0.000545
1018.9	0.000271
1019.63	-0.000046
1020.36	0.000440
1021.09	0.000651
1021.82	-0.000172
1022.55	0.000355
1023.03	-0.000785