File: Auto_Polymerization/Spectra/MRG-061-F-2_spectra_while_stopped/spectrum_2025-06-19_12-14-38.txt
# Wavelength (nm)	Intensity (a.u.)
197.7802	0.000778
198.3922	0.000693
199.0044	0.002171
199.6168	0.001263
200.2292	0.001073
200.8418	0.001242
201.4546	-0.000468
202.0674	0.000060
202.6805	0.000440
203.2936	0.000925
203.9069	-0.000299
204.5203	-0.000531
205.1338	0.000904
205.7475	0.000482
206.3614	-0.000405
206.9753	0.000989
207.5894	0.000102
208.2036	0.001284
208.8180	0.000588
209.4325	-0.000658
210.0471	0.000946
210.6618	0.000292
211.2767	0.000672
211.8918	-0.000278
212.5069	0.001179
213.1222	0.001136
213.7376	0.001031
214.3532	0.000208
214.9689	-0.002178
215.5847	-0.000426
216.2007	0.000123
216.8168	0.000524
217.4330	0.000060
218.0494	-0.000552
218.6659	0.000841
219.2825	-0.001333
219.8992	0.001010
220.5161	-0.000679
221.1332	0.000630
221.7503	0.000060
222.3676	0.001516
222.9850	0.001664
223.6026	0.000440
224.2203	0.001284
224.8381	0.001010
225.4561	0.001136
226.0742	-0.001059
226.6924	0.000229
227.3107	0.000862
227.9292	0.000039
228.5478	0.001622
229.1666	-0.000004
229.7855	0.000229
230.4045	0.000018
231.0236	0.000271
231.6429	-0.000004
232.2623	0.000630
232.8818	-0.000447
233.5015	-0.000721
234.1213	0.000946
234.7413	0.000229
235.3613	-0.000215
235.9815	0.000651
236.6018	0.001664
237.2223	0.001073
237.8429	0.001432
238.4636	0.001242
239.0845	0.001326
239.7055	0.000271
240.3266	-0.000785
240.9478	0.002002
241.5692	0.000967
242.1907	0.001136
242.8124	0.000271
243.4341	-0.000320
244.0560	0.000398
244.6781	0.001052
245.3002	0.000123
245.9225	0.000756
246.5449	-0.000172
247.1675	0.000461
247.7902	0.001094
248.4130	0.001854
249.0359	0.001601
249.6590	-0.001354
250.2822	0.000630
250.9056	-0.000616
251.5290	0.000313
252.1526	0.000630
252.7763	0.000060
253.4002	0.001369
254.0242	0.001369
254.6483	0.001390
255.2725	0.001938
255.8969	-0.001228
256.5214	0.001601
257.1460	0.001326
257.7708	0.000630
258.3957	0.000841
259.0207	0.000271
259.6459	0.001770
260.2711	0.000229
260.8965	-0.000046
261.5221	0.001390
262.1477	0.000503
262.7735	0.000039
263.3995	0.001664
264.0255	0.000904
264.6517	0.000271
265.2780	-0.000046
265.9044	0.000820
266.5310	0.000398
267.1577	0.001284
267.7845	-0.000341
268.4114	0.000609
269.0385	0.000081
269.6657	0.000946
270.2931	-0.000088
270.9205	0.001453
271.5481	0.001073
272.1758	-0.000151
272.8037	0.001453
273.4316	0.000229
274.0597	0.001326
274.6880	0.002086
275.3163	0.001580
275.9448	0.000545
276.5734	0.000503
277.2022	-0.000785
277.8310	-0.000911
278.4600	0.000799
279.0891	0.000820
279.7184	-0.000383
280.3477	0.001115
280.9772	0.001179
281.6069	0.000799
282.2366	0.001073
282.8665	0.000862
283.4965	0.000989
284.1266	0.001052
284.7569	0.001516
285.3873	-0.000278
286.0178	0.000566
286.6484	0.000440
287.2792	0.001010
287.9101	0.000419
288.5411	0.000672
289.1723	-0.000299
289.8035	0.000778
290.4349	0.000925
291.0665	0.001791
291.6981	0.001073
292.3299	0.000313
292.9618	0.001305
293.5938	0.000229
294.2260	0.000756
294.8582	0.000609
295.4906	0.000102
296.1232	0.000376
296.7558	-0.000215
297.3886	0.000989
298.0215	0.000039
298.6545	-0.000510
299.2877	0.000778
299.9210	0.001326
300.5544	0.000419
301.1879	0.000883
301.8215	0.000904
302.4553	0.000967
303.0892	0.001432
303.7233	-0.000489
304.3574	-0.000215
304.9917	0.001263
305.6261	-0.000447
306.2606	0.000989
306.8953	0.001242
307.5301	0.000609
308.1650	-0.000046
308.8000	0.000376
309.4351	0.001326
310.0704	0.002171
310.7058	-0.000025
311.3413	0.001179
311.9770	-0.000573
312.6127	0.001326
313.2486	-0.001418
313.8846	0.000102
314.5208	-0.000383
315.1570	0.000440
315.7934	0.001537
316.4299	0.001369
317.0666	-0.000447
317.7033	0.000398
318.3402	0.001537
318.9772	0.000398
319.6143	-0.000172
320.2516	0.000102
320.8890	-0.000215
321.5265	0.000250
322.1641	-0.000172
322.8018	0.001369
323.4397	-0.001164
324.0777	0.001622
324.7158	0.000440
325.3540	0.001031
325.9924	-0.000004
326.6308	-0.000489
327.2694	0.000967
327.9082	0.001622
328.5470	0.000609
329.1860	0.000672
329.8251	-0.000109
330.4643	-0.000109
331.1036	0.000545
331.7431	0.000693
332.3826	0.001749
333.0223	0.000440
333.6622	-0.000004
334.3021	-0.000046
334.9422	0.000398
335.5823	-0.001460
336.2227	0.001495
336.8631	0.001094
337.5036	0.001179
338.1443	0.001453
338.7851	-0.000827
339.4260	0.001411
340.0670	0.000186
340.7082	0.001369
341.3495	0.000883
341.9909	0.000693
342.6324	0.000376
343.2740	0.000313
343.9158	-0.001819
344.5577	0.001242
345.1997	0.001242
345.8418	0.001200
346.4840	0.000440
347.1264	0.000250
347.7689	-0.000109
348.4115	0.001516
349.0542	0.000651
349.6971	0.000588
350.3400	-0.000236
350.9831	0.000841
351.6263	-0.000341
352.2696	0.001854
352.9131	0.000967
353.5566	0.000904
354.2003	-0.000426
354.8441	-0.000806
355.4881	0.000820
356.1321	0.002783
356.7763	0.001854
357.4206	-0.000658
358.0650	0.000102
358.7095	0.001031
359.3541	-0.000088
359.9989	0.001073
360.6438	0.001896
361.2888	0.000714
361.9339	0.000334
362.5791	0.001474
363.2245	0.000524
363.8699	0.002403
364.5155	0.001136
365.1612	0.002086
365.8071	0.000039
366.4530	0.000376
367.0991	-0.000405
367.7453	0.001326
368.3916	0.001157
369.0380	-0.000257
369.6845	0.000018
370.3312	0.000334
370.9780	0.000609
371.6249	0.001622
372.2719	0.000756
372.9190	0.000334
373.5663	0.000398
374.2136	0.000081
374.8611	0.000651
375.5087	0.001263
376.1564	0.000060
376.8043	0.000292
377.4522	0.001031
378.1003	0.000778
378.7485	0.000989
379.3968	0.000123
380.0452	0.000060
380.6938	0.001390
381.3424	0.000609
381.9912	0.000756
382.6401	0.000946
383.2891	0.001031
383.9382	0.000018
384.5875	0.000334
385.2368	0.000799
385.8863	0.000461
386.5359	0.001643
387.1856	0.000398
387.8355	-0.000911
388.4854	0.002128
389.1355	0.001157
389.7856	0.000778
390.4359	-0.000341
391.0863	0.001200
391.7369	-0.000278
392.3875	0.001960
393.0383	0.002403
393.6891	0.002318
394.3401	0.001960
394.9912	0.002466
395.6425	0.002572
396.2938	0.003543
396.9453	0.003205
397.5968	0.004556
398.2485	0.004788
398.9003	0.004366
399.5522	0.003775
400.2043	0.006139
400.8564	0.005569
401.5087	0.006667
402.1610	0.005590
402.8135	0.006477
403.4661	0.006392
404.1189	0.007532
404.7717	0.007173
405.4246	0.007490
406.0777	0.007490
406.7309	0.008377
407.3842	0.008356
408.0376	0.007026
408.6911	0.009981
409.3448	0.009960
409.9985	0.010741
410.6524	0.008989
411.3064	0.010551
411.9605	0.010530
412.6147	0.012746
413.2690	0.011733
413.9234	0.011437
414.5780	0.012155
415.2326	0.011247
415.8874	0.013337
416.5423	0.012514
417.1973	0.014034
417.8524	0.014730
418.5077	0.013675
419.1630	0.015575
419.8185	0.015511
420.4741	0.015131
421.1298	0.016883
421.7856	0.017285
422.4415	0.017664
423.0975	0.019163
423.7536	0.018530
424.4099	0.018192
425.0663	0.019438
425.7228	0.018023
426.3793	0.018129
427.0361	0.017390
427.6929	0.021105
428.3498	0.020704
429.0068	0.018530
429.6640	0.021506
430.3213	0.021675
430.9787	0.022752
431.6362	0.021169
432.2938	0.018889
432.9515	0.018403
433.6093	0.021401
434.2673	0.020873
434.9253	0.020725
435.5835	0.021295
436.2418	0.022266
436.9001	0.021633
437.5586	0.021633
438.2173	0.021042
438.8760	0.022857
439.5348	0.022224
440.1938	0.022541
440.8528	0.022372
441.5120	0.028493
442.1713	0.026002
442.8307	0.023892
443.4902	0.025770
444.1498	0.024166
444.8095	0.026235
445.4694	0.025348
446.1293	0.022182
446.7894	0.024018
447.4496	0.022498
448.1098	0.024778
448.7702	0.020113
449.4307	0.023934
450.0914	0.021886
450.7521	0.021548
451.4129	0.019142
452.0739	0.020789
452.7349	0.019501
453.3961	0.019606
454.0574	0.018783
454.7188	0.018551
455.3803	0.018424
456.0419	0.017306
456.7036	0.017876
457.3654	0.017833
458.0274	0.016862
458.6894	0.019818
459.3516	0.017664
460.0138	0.018445
460.6762	0.016440
461.3387	0.016461
462.0013	0.016166
462.6640	0.013401
463.3268	0.014372
463.9897	0.014667
464.6528	0.015427
465.3159	0.013612
465.9792	0.017496
466.6425	0.013865
467.3060	0.012387
467.9696	0.011627
468.6333	0.012999
469.2970	0.009305
469.9610	0.009622
470.6250	0.009305
471.2891	0.008398
471.9533	0.008461
472.6177	0.008398
473.2821	0.009200
473.9467	0.010171
474.6113	0.008820
475.2761	0.007891
475.9410	0.008313
476.6060	0.009327
477.2711	0.006371
477.9363	0.007701
478.6016	0.007743
479.2670	0.006899
479.9325	0.008229
480.5982	0.007089
481.2639	0.006076
481.9298	0.006202
482.5957	0.006034
483.2618	0.006076
483.9280	0.006857
484.5943	0.006878
485.2606	0.008123
485.9271	0.020451
486.5937	0.013759
487.2605	0.010720
487.9273	0.006266
488.5942	0.005274
489.2612	0.004514
489.9284	0.005907
490.5956	0.005337
491.2630	0.004767
491.9304	0.003522
492.5980	0.004577
493.2657	0.003817
493.9334	0.004999
494.6013	0.002973
495.2693	0.003838
495.9374	0.003522
496.6056	0.002973
497.2739	0.003479
497.9423	0.004176
498.6109	0.004936
499.2795	0.005358
499.9482	0.003184
500.6171	0.004662
501.2860	0.002804
501.9551	0.003247
502.6242	0.003353
503.2935	0.003648
503.9628	0.004450
504.6323	0.005168
505.3019	0.004324
505.9716	0.001960
506.6414	0.001727
507.3113	0.002128
507.9813	0.003099
508.6514	0.004640
509.3216	0.003585
509.9919	0.003057
510.6623	0.003353
511.3329	0.003838
512.0035	0.003965
512.6742	0.003247
513.3451	0.003986
514.0160	0.002340
514.6871	0.002677
515.3582	0.003395
516.0295	0.002572
516.7008	0.003902
517.3723	0.003479
518.0439	0.003332
518.7155	0.003268
519.3873	0.004535
520.0592	0.003501
520.7312	0.003585
521.4033	0.003395
522.0755	0.001664
522.7478	0.003479
523.4202	0.002150
524.0927	0.004155
524.7653	0.002973
525.4380	0.004873
526.1108	0.004345
526.7837	0.002994
527.4568	0.003374
528.1299	0.004936
528.8031	0.004155
529.4765	0.005548
530.1499	0.003859
530.8234	0.004450
531.4971	0.005844
532.1708	0.007300
532.8447	0.005316
533.5186	0.005801
534.1927	0.006540
534.8668	0.009538
535.5411	0.007089
536.2155	0.008229
536.8899	0.007237
537.5645	0.008609
538.2392	0.008377
538.9139	0.009791
539.5888	0.011902
540.2638	0.010023
540.9389	0.010466
541.6140	0.012387
542.2893	0.011817
542.9647	0.012366
543.6402	0.013021
544.3158	0.015068
544.9915	0.014055
545.6673	0.016314
546.3432	0.014245
547.0192	0.014203
547.6953	0.014963
548.3715	0.019311
549.0478	0.017369
549.7242	0.018382
550.4007	0.015912
551.0773	0.018066
551.7540	0.019543
552.4308	0.021950
553.1077	0.020979
553.7847	0.024082
554.4618	0.020979
555.1390	0.022857
555.8163	0.025918
556.4937	0.026024
557.1712	0.023702
557.8488	0.024694
558.5266	0.024250
559.2044	0.023469
559.8823	0.026150
560.5603	0.031364
561.2384	0.031026
561.9166	0.031997
562.5949	0.031132
563.2733	0.033665
563.9519	0.032715
564.6305	0.038562
565.3092	0.039216
565.9880	0.037633
566.6669	0.042953
567.3459	0.048758
568.0250	0.056293
568.7043	0.063808
569.3836	0.072885
570.0630	0.100622
570.7425	0.103345
571.4221	0.120105
572.1018	0.130870
572.7816	0.113055
573.4615	0.132285
574.1415	0.151029
574.8216	0.164982
575.5018	0.166016
576.1821	0.155314
576.8626	0.171125
577.5431	0.186027
578.2237	0.234155
578.9044	0.196856
579.5851	0.195547
580.2660	0.201331
580.9470	0.197342
581.6281	0.310864
582.3093	0.291487
582.9906	0.232298
583.6720	0.188476
584.3535	0.189173
585.0351	0.216192
585.7167	0.226809
586.3985	0.200023
587.0804	0.204286
587.7624	0.225100
588.4445	0.194344
589.1266	0.171420
589.8089	0.162238
590.4913	0.147166
591.1737	0.128021
591.8563	0.128401
592.5389	0.150797
593.2217	0.199368
593.9046	0.186175
594.5875	0.167515
595.2705	0.196265
595.9537	0.170365
596.6369	0.140454
597.3203	0.147652
598.0037	0.140137
598.6872	0.148581
599.3709	0.178365
600.0546	0.176444
600.7384	0.175937
601.4223	0.183516
602.1064	0.164644
602.7905	0.167198
603.4747	0.186091
604.1590	0.170681
604.8434	0.156750
605.5279	0.161626
606.2125	0.169710
606.8972	0.153478
607.5819	0.158628
608.2668	0.150079
608.9518	0.138237
609.6369	0.129709
610.3220	0.150734
611.0073	0.137119
611.6927	0.135219
612.3781	0.128190
613.0637	0.129435
613.7493	0.127577
614.4351	0.125762
615.1209	0.126290
615.8068	0.129667
616.4929	0.113308
617.1790	0.108685
617.8652	0.110458
618.5515	0.102796
619.2379	0.089160
619.9244	0.092854
620.6110	0.094500
621.2977	0.074679
621.9845	0.080801
622.6714	0.082869
623.3584	0.087429
624.0454	0.089413
624.7326	0.088252
625.4199	0.082996
626.1072	0.078816
626.7947	0.072040
627.4822	0.068874
628.1698	0.065539
628.8576	0.058130
629.5454	0.063808
630.2333	0.061275
630.9213	0.056948
631.6094	0.050742
632.2976	0.051037
632.9859	0.044684
633.6743	0.044895
634.3628	0.041391
635.0514	0.041855
635.7400	0.042256
636.4288	0.045064
637.1177	0.045612
637.8066	0.042868
638.4957	0.041180
639.1848	0.041095
639.8740	0.038862
640.5633	0.036935
641.2528	0.035515
641.9423	0.031394
642.6319	0.029535
643.3216	0.030030
644.0113	0.031043
644.7012	0.025172
645.3912	0.027341
646.0812	0.024311
646.7714	0.025085
647.4616	0.026052
648.1520	0.029485
648.8424	0.032599
649.5329	0.032396
650.2236	0.030337
650.9143	0.028574
651.6051	0.031261
652.2960	0.031389
652.9870	0.030108
653.6780	0.032158
654.3692	0.035679
655.0605	0.066384
655.7518	0.948647
656.4433	1.000000
657.1348	0.866051
657.8264	0.519441
658.5181	0.414644
659.2099	0.332844
659.9018	0.098637
660.5938	0.031114
661.2859	0.026250
661.9781	0.022417
662.6704	0.021972
663.3627	0.021867
664.0552	0.021636
664.7477	0.023612
665.4403	0.022852
666.1330	0.023746
666.8259	0.021282
667.5188	0.018786
668.2117	0.019888
668.9048	0.022351
669.5980	0.019986
670.2913	0.021865
670.9846	0.021907
671.6781	0.028831
672.3716	0.033137
673.0652	0.032251
673.7589	0.032588
674.4527	0.027374
675.1466	0.027016
675.8406	0.025791
676.5347	0.025411
677.2288	0.022815
677.9231	0.028282
678.6174	0.030857
679.3119	0.032293
680.0064	0.036177
680.7010	0.035776
681.3957	0.035459
682.0905	0.033580
682.7854	0.029380
683.4803	0.032229
684.1754	0.033897
684.8705	0.038689
685.5658	0.042805
686.2611	0.042868
686.9565	0.041243
687.6520	0.041792
688.3476	0.039533
689.0433	0.035923
689.7390	0.036240
690.4349	0.033390
691.1308	0.038351
691.8269	0.036536
692.5230	0.037971
693.2192	0.039132
693.9155	0.037676
694.6119	0.030942
695.3083	0.034868
696.0049	0.029316
696.7016	0.036177
697.3983	0.039449
698.0951	0.038478
698.7920	0.037507
699.4890	0.034087
700.1861	0.033728
700.8833	0.031976
701.5806	0.030435
702.2779	0.030161
702.9753	0.029612
703.6729	0.028155
704.3705	0.027522
705.0682	0.023596
705.7660	0.025285
706.4638	0.030921
707.1618	0.037317
707.8599	0.036536
708.5580	0.038520
709.2562	0.034488
709.9545	0.033137
710.6529	0.036113
711.3514	0.033602
712.0500	0.030309
712.7486	0.029401
713.4474	0.031997
714.1462	0.031955
714.8451	0.034256
715.5441	0.034995
716.2432	0.030879
716.9424	0.026783
717.6416	0.026150
718.3410	0.029844
719.0404	0.029908
719.7399	0.029105
720.4395	0.027691
721.1392	0.028979
721.8390	0.029612
722.5388	0.027966
723.2388	0.027184
723.9388	0.029802
724.6389	0.026952
725.3391	0.032145
726.0394	0.034319
726.7398	0.032609
727.4403	0.033475
728.1408	0.032314
728.8414	0.034235
729.5421	0.036113
730.2429	0.036261
730.9438	0.043966
731.6448	0.042552
732.3458	0.039132
733.0470	0.042277
733.7482	0.046816
734.4495	0.052578
735.1509	0.051185
735.8524	0.047998
736.5539	0.047006
737.2556	0.051080
737.9573	0.041876
738.6591	0.039871
739.3610	0.045317
740.0630	0.043691
740.7651	0.041032
741.4672	0.034826
742.1695	0.034404
742.8718	0.033623
743.5742	0.031575
744.2767	0.030330
744.9792	0.028324
745.6819	0.029950
746.3846	0.028388
747.0874	0.031554
747.7903	0.031997
748.4933	0.031090
749.1964	0.030520
749.8995	0.035860
750.6028	0.038245
751.3061	0.038604
752.0095	0.040103
752.7130	0.036177
753.4166	0.035755
754.1202	0.043206
754.8239	0.041454
755.5278	0.042636
756.2317	0.046267
756.9356	0.049792
757.6397	0.060262
758.3438	0.057412
759.0481	0.054942
759.7524	0.059987
760.4568	0.060388
761.1613	0.061106
761.8658	0.052473
762.5705	0.050425
763.2752	0.052051
763.9800	0.047808
764.6849	0.056504
765.3898	0.058742
766.0949	0.050404
766.8000	0.041961
767.5052	0.037865
768.2105	0.043945
768.9159	0.049243
769.6214	0.046921
770.3269	0.045528
771.0325	0.048082
771.7382	0.043649
772.4440	0.040589
773.1499	0.040968
773.8558	0.039660
774.5618	0.033960
775.2679	0.031216
775.9741	0.027881
776.6804	0.023216
777.3868	0.025644
778.0932	0.024947
778.7997	0.027670
779.5063	0.032145
780.2130	0.028725
780.9197	0.031723
781.6265	0.036747
782.3335	0.034763
783.0405	0.032208
783.7475	0.035755
784.4547	0.030182
785.1619	0.029338
785.8692	0.028641
786.5766	0.030161
787.2841	0.026868
787.9917	0.031871
788.6993	0.031301
789.4070	0.030583
790.1148	0.025960
790.8227	0.024082
791.5306	0.025074
792.2387	0.023427
792.9468	0.022140
793.6550	0.025116
794.3632	0.031744
795.0716	0.032525
795.7800	0.028134
796.4885	0.022815
797.1971	0.021633
797.9058	0.023955
798.6145	0.023533
799.3233	0.023195
800.0322	0.020029
800.7412	0.020134
801.4503	0.019944
802.1594	0.017263
802.8686	0.016672
803.5779	0.018066
804.2873	0.018467
804.9968	0.016947
805.7063	0.017496
806.4159	0.023512
807.1256	0.023153
807.8354	0.023723
808.5452	0.023913
809.2551	0.024103
809.9651	0.020387
810.6752	0.018952
811.3853	0.018256
812.0956	0.017918
812.8059	0.015469
813.5163	0.016989
814.2267	0.019290
814.9373	0.017179
815.6479	0.014456
816.3586	0.014540
817.0694	0.015005
817.7802	0.014224
818.4912	0.014055
819.2022	0.014920
819.9133	0.013443
820.6244	0.016102
821.3357	0.015786
822.0470	0.013358
822.7584	0.013696
823.4698	0.012852
824.1814	0.012788
824.8930	0.010403
825.6047	0.015026
826.3165	0.014414
827.0283	0.013886
827.7402	0.011184
828.4522	0.013759
829.1643	0.012936
829.8765	0.011205
830.5887	0.010065
831.3010	0.008925
832.0134	0.008546
832.7259	0.008757
833.4384	0.010065
834.1510	0.011121
834.8637	0.011332
835.5765	0.009453
836.2893	0.008778
837.0022	0.008524
837.7152	0.007490
838.4283	0.007469
839.1414	0.007363
839.8546	0.007701
840.5679	0.007385
841.2813	0.007110
841.9947	0.006540
842.7082	0.007511
843.4218	0.005780
844.1355	0.006139
844.8492	0.006266
845.5631	0.005886
846.2770	0.003754
846.9909	0.005421
847.7050	0.004683
848.4191	0.004577
849.1333	0.004662
849.8475	0.006329
850.5619	0.005253
851.2763	0.005991
851.9908	0.005506
852.7053	0.008841
853.4200	0.012915
854.1347	0.015680
854.8495	0.014393
855.5643	0.012324
856.2792	0.012134
856.9942	0.011374
857.7093	0.009812
858.4245	0.010192
859.1397	0.009728
859.8550	0.008862
860.5704	0.007406
861.2858	0.006772
862.0013	0.005696
862.7169	0.007363
863.4326	0.006414
864.1483	0.008313
864.8642	0.005295
865.5800	0.005949
866.2960	0.005801
867.0120	0.006055
867.7281	0.006456
868.4443	0.006245
869.1606	0.004577
869.8769	0.006055
870.5933	0.004662
871.3097	0.006181
872.0263	0.004514
872.7429	0.004683
873.4596	0.004493
874.1763	0.006604
874.8932	0.006815
875.6101	0.006139
876.3270	0.005548
877.0441	0.004429
877.7612	0.005548
878.4784	0.006941
879.1957	0.007363
879.9130	0.008018
880.6304	0.008440
881.3479	0.006857
882.0654	0.007997
882.7831	0.005801
883.5007	0.005611
884.2185	0.007490
884.9363	0.005949
885.6542	0.005991
886.3722	0.005907
887.0903	0.006287
887.8084	0.005675
888.5266	0.005189
889.2448	0.006625
889.9632	0.004662
890.6816	0.004619
891.4001	0.004007
892.1186	0.006308
892.8372	0.004239
893.5559	0.006350
894.2747	0.005020
894.9935	0.004873
895.7124	0.004450
896.4314	0.005970
897.1504	0.005928
897.8695	0.005400
898.5887	0.004092
899.3079	0.004851
900.0272	0.002762
900.7466	0.005464
901.4661	0.004957
902.1856	0.004049
902.9052	0.004556
903.6249	0.004218
904.3446	0.004176
905.0644	0.005041
905.7843	0.005168
906.5043	0.005020
907.2243	0.004493
907.9444	0.003859
908.6645	0.003880
909.3847	0.003268
910.1050	0.004640
910.8254	0.004830
911.5458	0.004577
912.2663	0.004598
912.9869	0.003902
913.7075	0.003015
914.4283	0.003184
915.1490	0.003057
915.8699	0.003648
916.5908	0.005105
917.3118	0.003796
918.0328	0.004535
918.7539	0.003015
919.4751	0.005084
920.1964	0.003226
920.9177	0.004450
921.6391	0.002973
922.3606	0.003543
923.0821	0.001981
923.8037	0.004746
924.5254	0.002361
925.2471	0.003374
925.9689	0.003564
926.6908	0.003247
927.4127	0.003099
928.1347	0.002297
928.8568	0.001960
929.5789	0.003057
930.3011	0.002466
931.0234	0.003247
931.7457	0.000841
932.4681	0.002720
933.1906	0.003163
933.9131	0.002825
934.6358	0.002424
935.3584	0.001896
936.0812	0.001622
936.8040	0.001115
937.5269	0.001200
938.2498	0.000250
938.9728	0.001073
939.6959	0.001854
940.4190	0.001347
941.1422	0.001200
941.8655	0.001875
942.5889	0.000714
943.3123	0.002466
944.0357	0.002128
944.7593	0.001833
945.4829	0.001221
946.2066	0.002128
946.9303	0.000820
947.6541	0.001812
948.3780	0.000778
949.1019	0.001453
949.8259	0.000820
950.5500	0.002382
951.2741	0.000841
951.9983	0.001284
952.7226	-0.000067
953.4469	0.002361
954.1713	-0.000405
954.8958	0.001643
955.6203	-0.000067
956.3449	0.001854
957.0696	0.000186
957.7943	0.001390
958.5191	0.001537
959.2439	0.001896
959.9688	0.000630
960.6938	0.001474
961.4189	0.001347
962.1440	0.000989
962.8692	-0.000151
963.5944	0.000461
964.3197	0.000714
965.0451	0.001643
965.7705	0.002382
966.4960	0.001073
967.2216	0.001305
967.9472	0.002635
968.6729	0.001179
969.3987	0.000271
970.1245	0.001010
970.8504	0.001622
971.5763	0.000735
972.3023	0.001284
973.0284	0.000545
973.7545	0.000482
974.4807	0.000039
975.2070	0.000609
975.9333	0.000102
976.6597	0.000735
977.3862	0.000440
978.1127	-0.000721
978.8393	0.001706
979.5659	0.000967
980.2926	0.001664
981.0194	0.000609
981.7462	-0.000721
982.4731	-0.000215
983.2001	-0.000046
983.9271	0.001221
984.6542	-0.000489
985.3814	0.001812
986.1086	0.000186
986.8358	0.001580
987.5632	0.000208
988.2906	-0.000552
989.0180	0.000018
989.7456	0.000313
990.4732	0.000334
991.2008	-0.000215
991.9285	0.000144
992.6563	0.001010
993.3841	0.001242
994.1120	0.001812
994.8400	0.001052
995.5680	0.000355
996.2961	0.000355
997.0242	-0.000616
997.7524	-0.000320
998.4807	0.001643
999.2090	0.000630
999.9374	-0.000468
1000.67	-0.000109
1001.39	-0.000172
1002.12	0.001706
1002.85	0.001390
1003.58	0.000165
1004.31	-0.000405
1005.04	0.000398
1005.77	0.001221
1006.5	0.000651
1007.22	0.001052
1007.95	0.001727
1008.68	0.001284
1009.41	0.002023
1010.14	0.000440
1010.87	0.000461
1011.6	0.000186
1012.33	0.001411
1013.06	-0.000236
1013.79	0.001263
1014.52	-0.001080
1015.25	0.000524
1015.98	0.000989
1016.71	0.002065
1017.44	0.000883
1018.17	0.000735
1018.9	-0.000193
1019.63	0.000229
1020.36	0.000060
1021.09	0.000250
1021.82	-0.000996
1022.55	0.000651
1023.03	0.000461