File: Auto_Polymerization/Spectra/spectra_while_stopped/spectrum_2025-06-19_12-55-34.txt
# Wavelength (nm)	Intensity (a.u.)
197.7802	0.000816
198.3922	-0.000239
199.0044	-0.000598
199.6168	-0.000915
200.2292	-0.000640
200.8418	-0.000429
201.4546	0.000774
202.0674	0.001429
202.6805	-0.000746
203.2936	-0.000535
203.9069	0.002020
204.5203	-0.000218
205.1338	0.001049
205.7475	0.000690
206.3614	-0.000408
206.9753	0.000014
207.5894	0.001049
208.2036	0.000711
208.8180	0.000816
209.4325	0.000035
210.0471	-0.000535
210.6618	0.002611
211.2767	-0.000387
211.8918	-0.000070
212.5069	0.001893
213.1222	0.000479
213.7376	0.000521
214.3532	-0.000007
214.9689	-0.000007
215.5847	-0.000704
216.2007	0.002062
216.8168	0.000077
217.4330	0.001534
218.0494	-0.000493
218.6659	-0.000472
219.2825	0.001175
219.8992	0.000605
220.5161	-0.000493
221.1332	-0.000007
221.7503	-0.000873
222.3676	0.000669
222.9850	0.000816
223.6026	0.000289
224.2203	0.000457
224.8381	0.001218
225.4561	0.000732
226.0742	0.000753
226.6924	0.001049
227.3107	0.001133
227.9292	0.001513
228.5478	0.000141
229.1666	0.000373
229.7855	-0.000577
230.4045	0.000373
231.0236	-0.000640
231.6429	0.000690
232.2623	0.000816
232.8818	0.000162
233.5015	-0.001569
234.1213	0.000774
234.7413	-0.000345
235.3613	-0.001781
235.9815	-0.000619
236.6018	-0.000387
237.2223	-0.000176
237.8429	-0.000028
238.4636	0.000014
239.0845	0.001218
239.7055	0.001598
240.3266	-0.000577
240.9478	0.000436
241.5692	0.000141
242.1907	0.000500
242.8124	0.000183
243.4341	0.000014
244.0560	0.000500
244.6781	0.001914
245.3002	0.000183
245.9225	0.001091
246.5449	0.000457
247.1675	0.000077
247.7902	-0.000472
248.4130	0.000521
249.0359	0.000331
249.6590	0.001619
250.2822	0.000542
250.9056	0.000310
251.5290	0.000711
252.1526	0.000605
252.7763	-0.001020
253.4002	-0.000514
254.0242	0.000605
254.6483	0.000077
255.2725	0.000816
255.8969	0.000310
256.5214	-0.000345
257.1460	0.000099
257.7708	-0.000598
258.3957	0.000373
259.0207	0.000267
259.6459	0.000711
260.2711	-0.000134
260.8965	0.001091
261.5221	-0.000535
262.1477	-0.000260
262.7735	0.000795
263.3995	0.001154
264.0255	-0.000387
264.6517	-0.000282
265.2780	-0.001971
265.9044	-0.000556
266.5310	0.001809
267.1577	0.000880
267.7845	0.001661
268.4114	-0.000134
269.0385	0.000183
269.6657	0.000352
270.2931	-0.001337
270.9205	-0.000134
271.5481	0.000521
272.1758	0.001006
272.8037	0.000563
273.4316	0.001534
274.0597	0.001851
274.6880	0.000901
275.3163	0.001091
275.9448	0.002104
276.5734	-0.000070
277.2022	0.002125
277.8310	0.000647
278.4600	-0.000725
279.0891	-0.000007
279.7184	0.000880
280.3477	-0.000239
280.9772	0.000563
281.6069	0.000246
282.2366	-0.001105
282.8665	-0.000662
283.4965	0.001260
284.1266	-0.000809
284.7569	0.000795
285.3873	0.000690
286.0178	0.000352
286.6484	0.000373
287.2792	0.001323
287.9101	-0.000493
288.5411	0.000500
289.1723	-0.000535
289.8035	0.000774
290.4349	0.000204
291.0665	0.002231
291.6981	0.001302
292.3299	0.000985
292.9618	-0.000218
293.5938	-0.000704
294.2260	0.000521
294.8582	0.000901
295.4906	-0.000598
296.1232	0.001598
296.7558	-0.001084
297.3886	0.001492
298.0215	0.000267
298.6545	0.000711
299.2877	0.000436
299.9210	0.000331
300.5544	-0.000957
301.1879	0.000141
301.8215	-0.002245
302.4553	0.000943
303.0892	0.000584
303.7233	0.001788
304.3574	0.000373
304.9917	0.000605
305.6261	0.000479
306.2606	0.001766
306.8953	0.000310
307.5301	0.001809
308.1650	-0.000345
308.8000	0.001429
309.4351	-0.001232
310.0704	0.000584
310.7058	0.001302
311.3413	0.000373
311.9770	-0.000619
312.6127	-0.000197
313.2486	-0.000028
313.8846	0.000690
314.5208	0.001239
315.1570	0.001091
315.7934	0.000267
316.4299	-0.000303
317.0666	0.001027
317.7033	0.001027
318.3402	-0.000028
318.9772	-0.000345
319.6143	0.001070
320.2516	0.000669
320.8890	0.000141
321.5265	0.001429
322.1641	0.000436
322.8018	0.001534
323.4397	-0.000619
324.0777	0.000394
324.7158	0.000204
325.3540	0.001555
325.9924	0.000099
326.6308	0.000774
327.2694	-0.000493
327.9082	0.000141
328.5470	0.000141
329.1860	-0.000113
329.8251	0.001218
330.4643	0.000605
331.1036	0.000816
331.7431	-0.000091
332.3826	-0.001422
333.0223	-0.000282
333.6622	-0.000070
334.3021	0.001344
334.9422	0.000246
335.5823	0.001133
336.2227	-0.000408
336.8631	-0.000007
337.5036	-0.000535
338.1443	0.000521
338.7851	-0.000260
339.4260	0.001154
340.0670	0.000837
340.7082	0.001429
341.3495	0.000922
341.9909	0.000753
342.6324	-0.000472
343.2740	0.000457
343.9158	0.000289
344.5577	0.000120
345.1997	-0.000007
345.8418	0.001091
346.4840	-0.000239
347.1264	0.000732
347.7689	-0.000282
348.4115	0.000626
349.0542	0.000922
349.6971	-0.000113
350.3400	-0.000387
350.9831	0.001239
351.6263	0.000331
352.2696	-0.000049
352.9131	-0.000070
353.5566	0.000077
354.2003	0.000985
354.8441	0.000014
355.4881	-0.000345
356.1321	0.001386
356.7763	0.000669
357.4206	-0.001569
358.0650	-0.000197
358.7095	0.000436
359.3541	0.001386
359.9989	0.001471
360.6438	-0.000556
361.2888	0.000985
361.9339	-0.000873
362.5791	0.001049
363.2245	-0.000303
363.8699	0.001175
364.5155	0.000077
365.1612	-0.000155
365.8071	-0.000091
366.4530	0.000014
367.0991	0.000837
367.7453	0.000626
368.3916	-0.001316
369.0380	0.002358
369.6845	0.000415
370.3312	0.000035
370.9780	-0.000007
371.6249	0.000943
372.2719	0.000605
372.9190	0.000647
373.5663	0.000943
374.2136	0.000035
374.8611	0.001281
375.5087	0.001154
376.1564	-0.000345
376.8043	-0.000429
377.4522	0.000331
378.1003	-0.000176
378.7485	-0.000260
379.3968	0.000310
380.0452	0.001408
380.6938	0.000289
381.3424	-0.000070
381.9912	0.000479
382.6401	0.000035
383.2891	0.000436
383.9382	0.000141
384.5875	0.002104
385.2368	-0.000197
385.8863	0.001661
386.5359	-0.000873
387.1856	0.001766
387.8355	0.001788
388.4854	0.001978
389.1355	0.001112
389.7856	0.001344
390.4359	0.000901
391.0863	0.001682
391.7369	0.002104
392.3875	0.001682
393.0383	0.001956
393.6891	0.002928
394.3401	0.002252
394.9912	0.002991
395.6425	0.003455
396.2938	0.002590
396.9453	0.003033
397.5968	0.002062
398.2485	0.003181
398.9003	0.005102
399.5522	0.003181
400.2043	0.002885
400.8564	0.004828
401.5087	0.004617
402.1610	0.004870
402.8135	0.005609
403.4661	0.005736
404.1189	0.005567
404.7717	0.006517
405.4246	0.006601
406.0777	0.008311
406.7309	0.007192
407.3842	0.007784
408.0376	0.005883
408.6911	0.009135
409.3448	0.007868
409.9985	0.008924
410.6524	0.006960
411.3064	0.008311
411.9605	0.008290
412.6147	0.010043
413.2690	0.010655
413.9234	0.010254
414.5780	0.010380
415.2326	0.012872
415.8874	0.009937
416.5423	0.012576
417.1973	0.012492
417.8524	0.012048
418.5077	0.011394
419.1630	0.012998
419.8185	0.012745
420.4741	0.015448
421.1298	0.016102
421.7856	0.018910
422.4415	0.017495
423.0975	0.017369
423.7536	0.015553
424.4099	0.016883
425.0663	0.017981
425.7228	0.016735
426.3793	0.014814
427.0361	0.015448
427.6929	0.017643
428.3498	0.018488
429.0068	0.016714
429.6640	0.021211
430.3213	0.021169
430.9787	0.023365
431.6362	0.018762
432.2938	0.016989
432.9515	0.019543
433.6093	0.020240
434.2673	0.022035
434.9253	0.021148
435.5835	0.020451
436.2418	0.020557
436.9001	0.019227
437.5586	0.020557
438.2173	0.020388
438.8760	0.021169
439.5348	0.021992
440.1938	0.019818
440.8528	0.019438
441.5120	0.026342
442.1713	0.023682
442.8307	0.025814
443.4902	0.022795
444.1498	0.025561
444.8095	0.022837
445.4694	0.022478
446.1293	0.021866
446.7894	0.022499
447.4496	0.022140
448.1098	0.021359
448.7702	0.021190
449.4307	0.022774
450.0914	0.022436
450.7521	0.021570
451.4129	0.018720
452.0739	0.019142
452.7349	0.018108
453.3961	0.019712
454.0574	0.015722
454.7188	0.016757
455.3803	0.017559
456.0419	0.018699
456.7036	0.016778
457.3654	0.020092
458.0274	0.017601
458.6894	0.016672
459.3516	0.017812
460.0138	0.015490
460.6762	0.016039
461.3387	0.014603
462.0013	0.014350
462.6640	0.015363
463.3268	0.013611
463.9897	0.014962
464.6528	0.014899
465.3159	0.014012
465.9792	0.014392
466.6425	0.011774
467.3060	0.012196
467.9696	0.010866
468.6333	0.011542
469.2970	0.008607
469.9610	0.008691
470.6250	0.009642
471.2891	0.008945
471.9533	0.008565
472.6177	0.009642
473.2821	0.008649
473.9467	0.009874
474.6113	0.007952
475.2761	0.009029
475.9410	0.008839
476.6060	0.008248
477.2711	0.008691
477.9363	0.009430
478.6016	0.007847
479.2670	0.006179
479.9325	0.007868
480.5982	0.006749
481.2639	0.005841
481.9298	0.006707
482.5957	0.006791
483.2618	0.006897
483.9280	0.006158
484.5943	0.007298
485.2606	0.005419
485.9271	0.019628
486.5937	0.010782
487.2605	0.010760
487.9273	0.007129
488.5942	0.004701
489.2612	0.004891
489.9284	0.004891
490.5956	0.004511
491.2630	0.004743
491.9304	0.004237
492.5980	0.003814
493.2657	0.003793
493.9334	0.004933
494.6013	0.002801
495.2693	0.004406
495.9374	0.002738
496.6056	0.005651
497.2739	0.002526
497.9423	0.003519
498.6109	0.002801
499.2795	0.003962
499.9482	0.003455
500.6171	0.004342
501.2860	0.002653
501.9551	0.004680
502.6242	0.004258
503.2935	0.003540
503.9628	0.003455
504.6323	0.003603
505.3019	0.004807
505.9716	0.002548
506.6414	0.002738
507.3113	0.002864
507.9813	0.003371
508.6514	0.003603
509.3216	0.003054
509.9919	0.002653
510.6623	0.003413
511.3329	0.003012
512.0035	0.004004
512.6742	0.004110
513.3451	0.002569
514.0160	0.001724
514.6871	0.001661
515.3582	0.003814
516.0295	0.002717
516.7008	0.002801
517.3723	0.003223
518.0439	0.003603
518.7155	0.002569
519.3873	0.003920
520.0592	0.003603
520.7312	0.002294
521.4033	0.004026
522.0755	0.003983
522.7478	0.003308
523.4202	0.002189
524.0927	0.005334
524.7653	0.004342
525.4380	0.003688
526.1108	0.004828
526.7837	0.003645
527.4568	0.003118
528.1299	0.003899
528.8031	0.004427
529.4765	0.005292
530.1499	0.003498
530.8234	0.005440
531.4971	0.004237
532.1708	0.006348
532.8447	0.004997
533.5186	0.007826
534.1927	0.006348
534.8668	0.007657
535.5411	0.008480
536.2155	0.007192
536.8899	0.008269
537.5645	0.008713
538.2392	0.009135
538.9139	0.009515
539.5888	0.009747
540.2638	0.009663
540.9389	0.010570
541.6140	0.011077
542.2893	0.011922
542.9647	0.014920
543.6402	0.012534
544.3158	0.014751
544.9915	0.014392
545.6673	0.013484
546.3432	0.013949
547.0192	0.013547
547.6953	0.016714
548.3715	0.019586
549.0478	0.018488
549.7242	0.018150
550.4007	0.017664
551.0773	0.017390
551.7540	0.018783
552.4308	0.021254
553.1077	0.021781
553.7847	0.022753
554.4618	0.021845
555.1390	0.021064
555.8163	0.023724
556.4937	0.025012
557.1712	0.024230
557.8488	0.025117
558.5266	0.026701
559.2044	0.024526
559.8823	0.025033
560.5603	0.031198
561.2384	0.032338
561.9166	0.034491
562.5949	0.030184
563.2733	0.032950
563.9519	0.035315
564.6305	0.036159
565.3092	0.037743
565.9880	0.037700
566.6669	0.039537
567.3459	0.048911
568.0250	0.051719
568.7043	0.059172
569.3836	0.073571
570.0630	0.094494
570.7425	0.098822
571.4221	0.116071
572.1018	0.128148
572.7816	0.113348
573.4615	0.132518
574.1415	0.149852
574.8216	0.162202
575.5018	0.165496
576.1821	0.150506
576.8626	0.169866
577.5431	0.183357
578.2237	0.227652
578.9044	0.192162
579.5851	0.193914
580.2660	0.195540
580.9470	0.198221
581.6281	0.299921
582.3093	0.291138
582.9906	0.232065
583.6720	0.186039
584.3535	0.187474
585.0351	0.216842
585.7167	0.219883
586.3985	0.196975
587.0804	0.202845
587.7624	0.217244
588.4445	0.195202
589.1266	0.169592
589.8089	0.158529
590.4913	0.146495
591.1737	0.127219
591.8563	0.125931
592.5389	0.147466
593.2217	0.193829
593.9046	0.186039
594.5875	0.163131
595.2705	0.190114
595.9537	0.167248
596.6369	0.138239
597.3203	0.141596
598.0037	0.136783
598.6872	0.149176
599.3709	0.177003
600.0546	0.174005
600.7384	0.177847
601.4223	0.181204
602.1064	0.163659
602.7905	0.164947
603.4747	0.183189
604.1590	0.169508
604.8434	0.153863
605.5279	0.161400
606.2125	0.165348
606.8972	0.151435
607.5819	0.159310
608.2668	0.148690
608.9518	0.139675
609.6369	0.130618
610.3220	0.148437
611.0073	0.132856
611.6927	0.137015
612.3781	0.125065
613.0637	0.128274
613.7493	0.125044
614.4351	0.126944
615.1209	0.125530
615.8068	0.128887
616.4929	0.113242
617.1790	0.108365
617.8652	0.108935
618.5515	0.102580
619.2379	0.089701
619.9244	0.090630
620.6110	0.093311
621.2977	0.072727
621.9845	0.081594
622.6714	0.081531
623.3584	0.089511
624.0454	0.084254
624.7326	0.087400
625.4199	0.082291
626.1072	0.076442
626.7947	0.071819
627.4822	0.073402
628.1698	0.063648
628.8576	0.057842
629.5454	0.062508
630.2333	0.060291
630.9213	0.055836
631.6094	0.051128
632.2976	0.049819
632.9859	0.045364
633.6743	0.044794
634.3628	0.043063
635.0514	0.040888
635.7400	0.044034
636.4288	0.046272
637.1177	0.042282
637.8066	0.040213
638.4957	0.042366
639.1848	0.039938
639.8740	0.037993
640.5633	0.036109
641.2528	0.033848
641.9423	0.030632
642.6319	0.029411
643.3216	0.029665
644.0113	0.028927
644.7012	0.027249
645.3912	0.026379
646.0812	0.026608
646.7714	0.026375
647.4616	0.025299
648.1520	0.030212
648.8424	0.031577
649.5329	0.033533
650.2236	0.029477
650.9143	0.028746
651.6051	0.029314
652.2960	0.030165
652.9870	0.030877
653.6780	0.031582
654.3692	0.032951
655.0605	0.065540
655.7518	0.936691
656.4433	1.000000
657.1348	0.853421
657.8264	0.524604
658.5181	0.407962
659.2099	0.328251
659.9018	0.100811
660.5938	0.031517
661.2859	0.024178
661.9781	0.022460
662.6704	0.023119
663.3627	0.022016
664.0552	0.021129
664.7477	0.022794
665.4403	0.023771
666.1330	0.024440
666.8259	0.019409
667.5188	0.021360
668.2117	0.022863
668.9048	0.022478
669.5980	0.021401
670.2913	0.023639
670.9846	0.020282
671.6781	0.030459
672.3716	0.033056
673.0652	0.031662
673.7589	0.030205
674.4527	0.028960
675.1466	0.028833
675.8406	0.025941
676.5347	0.026236
677.2288	0.023048
677.9231	0.027566
678.6174	0.029509
679.3119	0.033267
680.0064	0.035969
680.7010	0.032422
681.3957	0.034006
682.0905	0.032718
682.7854	0.029530
683.4803	0.029994
684.1754	0.033077
684.8705	0.040276
685.5658	0.044330
686.2611	0.043232
686.9565	0.042620
687.6520	0.043718
688.3476	0.038482
689.0433	0.037405
689.7390	0.037975
690.4349	0.035800
691.1308	0.037806
691.8269	0.038397
692.5230	0.037975
693.2192	0.040002
693.9155	0.038988
694.6119	0.033415
695.3083	0.034069
696.0049	0.029741
696.7016	0.036518
697.3983	0.038545
698.0951	0.038292
698.7920	0.038334
699.4890	0.034449
700.1861	0.032950
700.8833	0.031894
701.5806	0.028896
702.2779	0.027672
702.9753	0.029614
703.6729	0.027355
704.3705	0.029509
705.0682	0.024315
705.7660	0.025138
706.4638	0.029614
707.1618	0.037004
707.8599	0.037109
708.5580	0.036666
709.2562	0.034555
709.9545	0.034217
710.6529	0.034280
711.3514	0.030712
712.0500	0.029361
712.7486	0.030015
713.4474	0.032823
714.1462	0.036370
714.8451	0.032169
715.5441	0.034766
716.2432	0.031430
716.9424	0.027144
717.6416	0.029361
718.3410	0.030311
719.0404	0.028474
719.7399	0.028474
720.4395	0.026891
721.1392	0.030311
721.8390	0.030311
722.5388	0.028073
723.2388	0.026975
723.9388	0.028559
724.6389	0.026785
725.3391	0.031852
726.0394	0.034723
726.7398	0.033689
727.4403	0.032950
728.1408	0.034808
728.8414	0.033710
729.5421	0.035969
730.2429	0.036624
730.9438	0.042873
731.6448	0.043190
732.3458	0.040572
733.0470	0.044119
733.7482	0.044794
734.4495	0.051719
735.1509	0.048088
735.8524	0.049101
736.5539	0.049355
737.2556	0.049080
737.9573	0.042556
738.6591	0.039136
739.3610	0.045301
740.0630	0.044288
740.7651	0.041648
741.4672	0.034892
742.1695	0.033647
742.8718	0.035294
743.5742	0.032760
744.2767	0.028875
744.9792	0.030438
745.6819	0.030205
746.3846	0.028157
747.0874	0.031155
747.7903	0.029044
748.4933	0.030374
749.1964	0.029192
749.8995	0.039178
750.6028	0.040635
751.3061	0.039938
752.0095	0.037257
752.7130	0.036856
753.4166	0.038925
754.1202	0.040065
754.8239	0.036476
755.5278	0.043570
756.2317	0.046040
756.9356	0.051001
757.6397	0.059890
758.3438	0.055604
759.0481	0.054126
759.7524	0.059721
760.4568	0.062065
761.1613	0.061199
761.8658	0.054189
762.5705	0.047877
763.2752	0.050854
763.9800	0.050769
764.6849	0.058370
765.3898	0.054928
766.0949	0.048911
766.8000	0.041965
767.5052	0.037890
768.2105	0.043232
768.9159	0.049418
769.6214	0.046694
770.3269	0.042810
771.0325	0.045808
771.7382	0.043760
772.4440	0.040762
773.1499	0.041627
773.8558	0.036687
774.5618	0.032633
775.2679	0.031747
775.9741	0.028411
776.6804	0.026532
777.3868	0.025708
778.0932	0.023470
778.7997	0.027735
779.5063	0.031979
780.2130	0.029530
780.9197	0.031979
781.6265	0.035378
782.3335	0.036645
783.0405	0.035125
783.7475	0.035885
784.4547	0.033626
785.1619	0.028749
785.8692	0.029234
786.5766	0.029213
787.2841	0.027841
787.9917	0.029403
788.6993	0.030163
789.4070	0.032106
790.1148	0.025624
790.8227	0.024357
791.5306	0.023534
792.2387	0.023491
792.9468	0.022204
793.6550	0.025772
794.3632	0.031958
795.0716	0.033710
795.7800	0.029403
796.4885	0.023069
797.1971	0.021781
797.9058	0.023808
798.6145	0.020937
799.3233	0.022731
800.0322	0.022267
800.7412	0.019839
801.4503	0.018910
802.1594	0.019691
802.8686	0.016524
803.5779	0.019142
804.2873	0.015975
804.9968	0.017685
805.7063	0.018340
806.4159	0.024547
807.1256	0.023344
807.8354	0.022837
808.5452	0.021655
809.2551	0.021802
809.9651	0.019100
810.6752	0.018910
811.3853	0.019163
812.0956	0.018572
812.8059	0.014856
813.5163	0.015046
814.2267	0.019290
814.9373	0.016714
815.6479	0.015574
816.3586	0.015701
817.0694	0.013526
817.7802	0.016461
818.4912	0.012872
819.2022	0.012830
819.9133	0.012914
820.6244	0.013758
821.3357	0.015490
822.0470	0.014392
822.7584	0.014181
823.4698	0.011964
824.1814	0.012471
824.8930	0.012281
825.6047	0.012893
826.3165	0.012808
827.0283	0.013949
827.7402	0.013357
828.4522	0.012133
829.1643	0.013188
829.8765	0.012661
830.5887	0.012133
831.3010	0.009916
832.0134	0.007995
832.7259	0.007931
833.4384	0.009451
834.1510	0.010465
834.8637	0.011964
835.5765	0.009578
836.2893	0.010148
837.0022	0.007277
837.7152	0.007636
838.4283	0.006960
839.1414	0.006876
839.8546	0.007045
840.5679	0.007277
841.2813	0.007108
841.9947	0.005166
842.7082	0.007214
843.4218	0.005419
844.1355	0.005715
844.8492	0.004152
845.5631	0.004976
846.2770	0.004406
846.9909	0.005123
847.7050	0.005482
848.4191	0.006179
849.1333	0.004427
849.8475	0.005630
850.5619	0.004743
851.2763	0.004384
851.9908	0.005144
852.7053	0.009071
853.4200	0.013378
854.1347	0.013885
854.8495	0.011943
855.5643	0.013949
856.2792	0.013822
856.9942	0.013167
857.7093	0.008945
858.4245	0.011457
859.1397	0.010043
859.8550	0.008290
860.5704	0.006517
861.2858	0.007889
862.0013	0.005672
862.7169	0.004912
863.4326	0.005356
864.1483	0.006475
864.8642	0.004384
865.5800	0.005630
866.2960	0.005060
867.0120	0.005883
867.7281	0.005567
868.4443	0.004997
869.1606	0.004743
869.8769	0.004321
870.5933	0.005841
871.3097	0.006770
872.0263	0.005313
872.7429	0.004321
873.4596	0.005883
874.1763	0.004659
874.8932	0.005039
875.6101	0.005588
876.3270	0.003983
877.0441	0.005503
877.7612	0.006052
878.4784	0.007995
879.1957	0.008206
879.9130	0.007551
880.6304	0.009198
881.3479	0.007129
882.0654	0.006559
882.7831	0.006580
883.5007	0.007446
884.2185	0.005968
884.9363	0.005334
885.6542	0.008354
886.3722	0.006876
887.0903	0.005799
887.8084	0.007446
888.5266	0.006390
889.2448	0.008185
889.9632	0.004553
890.6816	0.005166
891.4001	0.004976
892.1186	0.006411
892.8372	0.004469
893.5559	0.005736
894.2747	0.004596
894.9935	0.005651
895.7124	0.004406
896.4314	0.003540
897.1504	0.004194
897.8695	0.005525
898.5887	0.004490
899.3079	0.004638
900.0272	0.003308
900.7466	0.005102
901.4661	0.003582
902.1856	0.004321
902.9052	0.003350
903.6249	0.003561
904.3446	0.004342
905.0644	0.005799
905.7843	0.004912
906.5043	0.004764
907.2243	0.004743
907.9444	0.004807
908.6645	0.003540
909.3847	0.002885
910.1050	0.002632
910.8254	0.002738
911.5458	0.003751
912.2663	0.004300
912.9869	0.004870
913.7075	0.003688
914.4283	0.003835
915.1490	0.004173
915.8699	0.003181
916.5908	0.004976
917.3118	0.003962
918.0328	0.004722
918.7539	0.003561
919.4751	0.004342
920.1964	0.002104
920.9177	0.004110
921.6391	0.002780
922.3606	0.002970
923.0821	0.002970
923.8037	0.004933
924.5254	0.004553
925.2471	0.004342
925.9689	0.002949
926.6908	0.003413
927.4127	0.002695
928.1347	0.002822
928.8568	0.002864
929.5789	0.002569
930.3011	0.001218
931.0234	0.001914
931.7457	0.001661
932.4681	0.003118
933.1906	0.002695
933.9131	0.001534
934.6358	0.002970
935.3584	0.002885
936.0812	0.001851
936.8040	0.001323
937.5269	0.002020
938.2498	0.002041
938.9728	0.002252
939.6959	0.000626
940.4190	0.002864
941.1422	-0.000007
941.8655	0.002358
942.5889	0.001091
943.3123	0.001365
944.0357	0.001555
944.7593	0.002083
945.4829	0.000901
946.2066	0.001471
946.9303	0.000837
947.6541	0.002125
948.3780	0.000985
949.1019	0.000859
949.8259	0.001745
950.5500	0.002020
951.2741	0.001682
951.9983	0.001978
952.7226	0.001724
953.4469	0.001809
954.1713	0.000246
954.8958	0.002653
955.6203	0.001091
956.3449	0.001598
957.0696	0.001830
957.7943	0.001386
958.5191	-0.000028
959.2439	0.001851
959.9688	0.001513
960.6938	0.001049
961.4189	0.001429
962.1440	0.001006
962.8692	0.000162
963.5944	0.001576
964.3197	0.000859
965.0451	0.000415
965.7705	0.000267
966.4960	0.001661
967.2216	-0.000472
967.9472	0.001851
968.6729	0.000457
969.3987	0.002125
970.1245	0.002463
970.8504	0.000859
971.5763	-0.000450
972.3023	0.000331
973.0284	-0.000429
973.7545	0.000605
974.4807	0.001175
975.2070	0.001281
975.9333	0.001344
976.6597	0.001429
977.3862	-0.000049
978.1127	0.001218
978.8393	0.000267
979.5659	0.001619
980.2926	0.001239
981.0194	0.001175
981.7462	0.001555
982.4731	0.001175
983.2001	-0.000260
983.9271	0.000837
984.6542	0.001956
985.3814	0.000626
986.1086	0.000099
986.8358	0.002083
987.5632	-0.000598
988.2906	0.000352
989.0180	0.000056
989.7456	0.000901
990.4732	0.001218
991.2008	0.001745
991.9285	0.001196
992.6563	0.000035
993.3841	0.001408
994.1120	0.000943
994.8400	-0.000577
995.5680	0.000880
996.2961	0.001133
997.0242	0.001281
997.7524	-0.001168
998.4807	0.001745
999.2090	-0.000662
999.9374	0.000753
1000.67	0.000373
1001.39	-0.000155
1002.12	-0.000387
1002.85	-0.000197
1003.58	0.000816
1004.31	0.001281
1005.04	-0.000535
1005.77	-0.001105
1006.5	0.000816
1007.22	-0.000049
1007.95	0.001218
1008.68	-0.000852
1009.41	-0.000282
1010.14	0.000753
1010.87	0.001766
1011.6	0.000563
1012.33	0.000077
1013.06	-0.000282
1013.79	-0.000725
1014.52	0.000542
1015.25	-0.000345
1015.98	-0.000260
1016.71	0.000859
1017.44	0.000605
1018.17	-0.001210
1018.9	0.000880
1019.63	0.001281
1020.36	0.001154
1021.09	0.001640
1021.82	0.000415
1022.55	-0.000303
1023.03	0.000394