File: Auto_Polymerization/Spectra/spectra_while_stopped/spectrum_2025-06-19_11-43-57.txt
# Wavelength (nm)	Intensity (a.u.)
197.7802	0.001175
198.3922	0.000162
199.0044	0.000584
199.6168	-0.000239
200.2292	0.000246
200.8418	0.000141
201.4546	0.000901
202.0674	-0.000999
202.6805	0.001302
203.2936	-0.000704
203.9069	0.000099
204.5203	-0.000873
205.1338	0.001112
205.7475	0.000584
206.3614	0.000711
206.9753	-0.000197
207.5894	0.000922
208.2036	-0.001506
208.8180	0.000183
209.4325	-0.001379
210.0471	0.000246
210.6618	-0.000767
211.2767	-0.000577
211.8918	0.000120
212.5069	0.000774
213.1222	-0.000873
213.7376	0.001492
214.3532	0.000141
214.9689	0.000056
215.5847	-0.000514
216.2007	0.000880
216.8168	-0.000830
217.4330	0.000563
218.0494	-0.000197
218.6659	0.000457
219.2825	-0.001232
219.8992	0.000605
220.5161	-0.000662
221.1332	-0.001020
221.7503	-0.000260
222.3676	0.000647
222.9850	-0.001506
223.6026	-0.000830
224.2203	-0.001337
224.8381	0.001344
225.4561	0.002273
226.0742	-0.000155
226.6924	-0.000873
227.3107	0.000352
227.9292	0.000711
228.5478	0.000626
229.1666	0.000922
229.7855	-0.000493
230.4045	0.000521
231.0236	0.002020
231.6429	-0.001147
232.2623	-0.000049
232.8818	0.000500
233.5015	0.000267
234.1213	0.000753
234.7413	0.001429
235.3613	0.001513
235.9815	-0.000218
236.6018	0.000521
237.2223	0.001006
237.8429	-0.000303
238.4636	-0.000197
239.0845	-0.000239
239.7055	0.000711
240.3266	0.000669
240.9478	0.000605
241.5692	-0.000007
242.1907	-0.000472
242.8124	-0.000113
243.4341	0.000880
244.0560	0.000985
244.6781	-0.001147
245.3002	0.000246
245.9225	-0.000936
246.5449	0.000626
247.1675	0.000816
247.7902	-0.000577
248.4130	0.000056
249.0359	-0.000535
249.6590	0.001112
250.2822	0.000859
250.9056	0.000880
251.5290	-0.000070
252.1526	0.000647
252.7763	0.000077
253.4002	0.001154
254.0242	-0.000218
254.6483	0.000669
255.2725	0.001091
255.8969	-0.000493
256.5214	-0.000345
257.1460	0.000626
257.7708	-0.000134
258.3957	0.000056
259.0207	-0.000387
259.6459	0.000479
260.2711	0.000753
260.8965	0.000056
261.5221	0.001323
262.1477	0.000647
262.7735	0.002125
263.3995	0.001471
264.0255	-0.000091
264.6517	0.001978
265.2780	0.000289
265.9044	0.000943
266.5310	0.000626
267.1577	0.000162
267.7845	0.000352
268.4114	0.001070
269.0385	0.000352
269.6657	0.000035
270.2931	0.001070
270.9205	0.000500
271.5481	-0.000282
272.1758	0.000120
272.8037	0.001133
273.4316	0.001513
274.0597	-0.000218
274.6880	0.000584
275.3163	0.001049
275.9448	-0.001274
276.5734	-0.000408
277.2022	0.000077
277.8310	0.000669
278.4600	0.000289
279.0891	-0.000345
279.7184	-0.000070
280.3477	0.000162
280.9772	0.000246
281.6069	0.000711
282.2366	-0.000134
282.8665	0.000943
283.4965	0.000331
284.1266	0.001133
284.7569	0.000964
285.3873	-0.001189
286.0178	0.000120
286.6484	0.000880
287.2792	0.001049
287.9101	0.000162
288.5411	0.000753
289.1723	-0.000535
289.8035	-0.000282
290.4349	-0.000239
291.0665	0.001365
291.6981	0.000141
292.3299	0.000837
292.9618	0.000035
293.5938	0.000415
294.2260	-0.000429
294.8582	0.000331
295.4906	-0.000514
296.1232	0.000436
296.7558	-0.000176
297.3886	0.002294
298.0215	0.001429
298.6545	0.000690
299.2877	-0.000662
299.9210	0.001323
300.5544	0.000289
301.1879	0.000964
301.8215	-0.000028
302.4553	0.000521
303.0892	0.001154
303.7233	0.000415
304.3574	0.000415
304.9917	0.000267
305.6261	-0.000725
306.2606	0.001344
306.8953	-0.000472
307.5301	0.001091
308.1650	-0.000218
308.8000	0.000816
309.4351	-0.000936
310.0704	0.000922
310.7058	0.001471
311.3413	0.001091
311.9770	-0.000514
312.6127	-0.000007
313.2486	0.000099
313.8846	0.001576
314.5208	0.000605
315.1570	0.001175
315.7934	0.000162
316.4299	-0.000936
317.0666	-0.000598
317.7033	0.000880
318.3402	-0.000662
318.9772	-0.000366
319.6143	0.000267
320.2516	0.001196
320.8890	0.000859
321.5265	0.000711
322.1641	0.000837
322.8018	0.001555
323.4397	0.000331
324.0777	0.001049
324.7158	-0.001084
325.3540	-0.000387
325.9924	0.001006
326.6308	-0.000155
327.2694	0.000204
327.9082	0.001260
328.5470	0.000500
329.1860	-0.000091
329.8251	0.001175
330.4643	0.001112
331.1036	-0.000852
331.7431	-0.000303
332.3826	0.000584
333.0223	0.001006
333.6622	-0.000577
334.3021	0.001323
334.9422	-0.000197
335.5823	-0.000767
336.2227	-0.001020
336.8631	0.000500
337.5036	-0.000788
338.1443	0.000457
338.7851	-0.000345
339.4260	0.000204
340.0670	0.000077
340.7082	0.000035
341.3495	0.002674
341.9909	0.001703
342.6324	-0.000472
343.2740	0.001070
343.9158	0.000563
344.5577	0.001112
345.1997	-0.001210
345.8418	0.000964
346.4840	0.000141
347.1264	0.000183
347.7689	-0.000640
348.4115	0.000711
349.0542	0.000436
349.6971	0.001112
350.3400	-0.000239
350.9831	0.000373
351.6263	0.000711
352.2696	0.000035
352.9131	0.001175
353.5566	-0.000134
354.2003	-0.000429
354.8441	0.000584
355.4881	-0.000493
356.1321	-0.000345
356.7763	0.000901
357.4206	-0.000113
358.0650	-0.000387
358.7095	0.000141
359.3541	-0.000239
359.9989	0.000837
360.6438	0.000922
361.2888	0.001534
361.9339	0.000943
362.5791	0.001239
363.2245	0.000837
363.8699	0.000394
364.5155	0.000732
365.1612	0.001598
365.8071	-0.000978
366.4530	-0.000218
367.0991	0.000056
367.7453	-0.000387
368.3916	0.001175
369.0380	0.001872
369.6845	-0.000070
370.3312	0.002062
370.9780	0.000331
371.6249	-0.000429
372.2719	-0.001105
372.9190	0.000859
373.5663	-0.000746
374.2136	-0.000282
374.8611	0.000647
375.5087	0.001598
376.1564	-0.000978
376.8043	0.000479
377.4522	0.000056
378.1003	0.000331
378.7485	-0.000303
379.3968	0.000099
380.0452	0.000120
380.6938	0.000056
381.3424	0.000457
381.9912	-0.000640
382.6401	0.000605
383.2891	0.000711
383.9382	-0.000640
384.5875	0.000204
385.2368	-0.000514
385.8863	0.000120
386.5359	-0.000472
387.1856	-0.000176
387.8355	0.000120
388.4854	0.000267
389.1355	0.000014
389.7856	0.002358
390.4359	0.000457
391.0863	0.003498
391.7369	0.001154
392.3875	0.001956
393.0383	0.002801
393.6891	0.003139
394.3401	0.002548
394.9912	0.003054
395.6425	0.001534
396.2938	0.004300
396.9453	0.005166
397.5968	0.004131
398.2485	0.006010
398.9003	0.006242
399.5522	0.005672
400.2043	0.007762
400.8564	0.007784
401.5087	0.007024
402.1610	0.007952
402.8135	0.008860
403.4661	0.007678
404.1189	0.009114
404.7717	0.007340
405.4246	0.010866
406.0777	0.009114
406.7309	0.011162
407.3842	0.009536
408.0376	0.010169
408.6911	0.011352
409.3448	0.012808
409.9985	0.011457
410.6524	0.012196
411.3064	0.012238
411.9605	0.013210
412.6147	0.014540
413.2690	0.012450
413.9234	0.013210
414.5780	0.015025
415.2326	0.015870
415.8874	0.013801
416.5423	0.016609
417.1973	0.016123
417.8524	0.016503
418.5077	0.015806
419.1630	0.017158
419.8185	0.017474
420.4741	0.018551
421.1298	0.020198
421.7856	0.022626
422.4415	0.022837
423.0975	0.021549
423.7536	0.021444
424.4099	0.020451
425.0663	0.020895
425.7228	0.020916
426.3793	0.018424
427.0361	0.020536
427.6929	0.020789
428.3498	0.020705
429.0068	0.022267
429.6640	0.024252
430.3213	0.024610
430.9787	0.023386
431.6362	0.022394
432.2938	0.020789
432.9515	0.020683
433.6093	0.022668
434.2673	0.023133
434.9253	0.020705
435.5835	0.024040
436.2418	0.025729
436.9001	0.025265
437.5586	0.022541
438.2173	0.023301
438.8760	0.023597
439.5348	0.023048
440.1938	0.023491
440.8528	0.023133
441.5120	0.029319
442.1713	0.028390
442.8307	0.028136
443.4902	0.025202
444.1498	0.026278
444.8095	0.027102
445.4694	0.025371
446.1293	0.026215
446.7894	0.025497
447.4496	0.024927
448.1098	0.024864
448.7702	0.022816
449.4307	0.024125
450.0914	0.023470
450.7521	0.022668
451.4129	0.019522
452.0739	0.021866
452.7349	0.022457
453.3961	0.022035
454.0574	0.018044
454.7188	0.017263
455.3803	0.019417
456.0419	0.017179
456.7036	0.016355
457.3654	0.018952
458.0274	0.018699
458.6894	0.019248
459.3516	0.018424
460.0138	0.018636
460.6762	0.015701
461.3387	0.016714
462.0013	0.014497
462.6640	0.014434
463.3268	0.015025
463.9897	0.015574
464.6528	0.015405
465.3159	0.015426
465.9792	0.015806
466.6425	0.012745
467.3060	0.013146
467.9696	0.012154
468.6333	0.013146
469.2970	0.011668
469.9610	0.008164
470.6250	0.009283
471.2891	0.010148
471.9533	0.008691
472.6177	0.008544
473.2821	0.009135
473.9467	0.007974
474.6113	0.007171
475.2761	0.009789
475.9410	0.007087
476.6060	0.009451
477.2711	0.006327
477.9363	0.008058
478.6016	0.007382
479.2670	0.008290
479.9325	0.006876
480.5982	0.005862
481.2639	0.006728
481.9298	0.007192
482.5957	0.006665
483.2618	0.007488
483.9280	0.005398
484.5943	0.007129
485.2606	0.006390
485.9271	0.017707
486.5937	0.013041
487.2605	0.009979
487.9273	0.005503
488.5942	0.005292
489.2612	0.003857
489.9284	0.005060
490.5956	0.004384
491.2630	0.005546
491.9304	0.003413
492.5980	0.002653
493.2657	0.005482
493.9334	0.003054
494.6013	0.003624
495.2693	0.003371
495.9374	0.003139
496.6056	0.005356
497.2739	0.003413
497.9423	0.003983
498.6109	0.004532
499.2795	0.003223
499.9482	0.001935
500.6171	0.004047
501.2860	0.004047
501.9551	0.004279
502.6242	0.002336
503.2935	0.004722
503.9628	0.002526
504.6323	0.004596
505.3019	0.003329
505.9716	0.002125
506.6414	0.002062
507.3113	0.004089
507.9813	0.003920
508.6514	0.003730
509.3216	0.003413
509.9919	0.003160
510.6623	0.002885
511.3329	0.003793
512.0035	0.002864
512.6742	0.004131
513.3451	0.003878
514.0160	0.004173
514.6871	0.004026
515.3582	0.004194
516.0295	0.003223
516.7008	0.004216
517.3723	0.002991
518.0439	0.003772
518.7155	0.001956
519.3873	0.003498
520.0592	0.004152
520.7312	0.003223
521.4033	0.004026
522.0755	0.003371
522.7478	0.002104
523.4202	0.003033
524.0927	0.003477
524.7653	0.003667
525.4380	0.003012
526.1108	0.003751
526.7837	0.004342
527.4568	0.005482
528.1299	0.005060
528.8031	0.005229
529.4765	0.004954
530.1499	0.004194
530.8234	0.006369
531.4971	0.004300
532.1708	0.004743
532.8447	0.005926
533.5186	0.006411
534.1927	0.005081
534.8668	0.006411
535.5411	0.007024
536.2155	0.008607
536.8899	0.008206
537.5645	0.009177
538.2392	0.008100
538.9139	0.009832
539.5888	0.009620
540.2638	0.008966
540.9389	0.012133
541.6140	0.012998
542.2893	0.012006
542.9647	0.012323
543.6402	0.012027
544.3158	0.014645
544.9915	0.014603
545.6673	0.013949
546.3432	0.013970
547.0192	0.015616
547.6953	0.018931
548.3715	0.019016
549.0478	0.017960
549.7242	0.018614
550.4007	0.018108
551.0773	0.018657
551.7540	0.017812
552.4308	0.022943
553.1077	0.021929
553.7847	0.021465
554.4618	0.021929
555.1390	0.022943
555.8163	0.025328
556.4937	0.026257
557.1712	0.023724
557.8488	0.024230
558.5266	0.025181
559.2044	0.024062
559.8823	0.025054
560.5603	0.030860
561.2384	0.032676
561.9166	0.033457
562.5949	0.032401
563.2733	0.034470
563.9519	0.035758
564.6305	0.038840
565.3092	0.038777
565.9880	0.041965
566.6669	0.041163
567.3459	0.049840
568.0250	0.053472
568.7043	0.065970
569.3836	0.073719
570.0630	0.098336
570.7425	0.100321
571.4221	0.122278
572.1018	0.135073
572.7816	0.118288
573.4615	0.132813
574.1415	0.153462
574.8216	0.168410
575.5018	0.171344
576.1821	0.152089
576.8626	0.179156
577.5431	0.191233
578.2237	0.232149
578.9044	0.198432
579.5851	0.201177
580.2660	0.204808
580.9470	0.200332
581.6281	0.314172
582.3093	0.299478
582.9906	0.231431
583.6720	0.195012
584.3535	0.196637
585.0351	0.218700
585.7167	0.229721
586.3985	0.200987
587.0804	0.206117
587.7624	0.223556
588.4445	0.198474
589.1266	0.174638
589.8089	0.162393
590.4913	0.145017
591.1737	0.129098
591.8563	0.132096
592.5389	0.152448
593.2217	0.202633
593.9046	0.188783
594.5875	0.167037
595.2705	0.195307
595.9537	0.173054
596.6369	0.142483
597.3203	0.149281
598.0037	0.142821
598.6872	0.151477
599.3709	0.178227
600.0546	0.179515
600.7384	0.178185
601.4223	0.182492
602.1064	0.165771
602.7905	0.169149
603.4747	0.187390
604.1590	0.170500
604.8434	0.157220
605.5279	0.163680
606.2125	0.170859
606.8972	0.156945
607.5819	0.158191
608.2668	0.149260
608.9518	0.139105
609.6369	0.132096
610.3220	0.149007
611.0073	0.140013
611.6927	0.133996
612.3781	0.128021
613.0637	0.126606
613.7493	0.127176
614.4351	0.127831
615.1209	0.127599
615.8068	0.132075
616.4929	0.113305
617.1790	0.110455
617.8652	0.109019
618.5515	0.105557
619.2379	0.090187
619.9244	0.092488
620.6110	0.093882
621.2977	0.075936
621.9845	0.080686
622.6714	0.083177
623.3584	0.092594
624.0454	0.083557
624.7326	0.090651
625.4199	0.083937
626.1072	0.078300
626.7947	0.070109
627.4822	0.070277
628.1698	0.066435
628.8576	0.059827
629.5454	0.064091
630.2333	0.059531
630.9213	0.055857
631.6094	0.051888
632.2976	0.051318
632.9859	0.046040
633.6743	0.044351
634.3628	0.042746
635.0514	0.040276
635.7400	0.040339
636.4288	0.044773
637.1177	0.043295
637.8066	0.042029
638.4957	0.042641
639.1848	0.039411
639.8740	0.038632
640.5633	0.036875
641.2528	0.033467
641.9423	0.030208
642.6319	0.030844
643.3216	0.030119
644.0113	0.029834
644.7012	0.028991
645.3912	0.026850
646.0812	0.026875
646.7714	0.024553
647.4616	0.024278
648.1520	0.030146
648.8424	0.032144
649.5329	0.033983
650.2236	0.032192
650.9143	0.029958
651.6051	0.028064
652.2960	0.030566
652.9870	0.031026
653.6780	0.030145
654.3692	0.033819
655.0605	0.067161
655.7518	0.956617
656.4433	1.000000
657.1348	0.867292
657.8264	0.529585
658.5181	0.406972
659.2099	0.330865
659.9018	0.097066
660.5938	0.032550
661.2859	0.023585
661.9781	0.022312
662.6704	0.021739
663.3627	0.021172
664.0552	0.020304
664.7477	0.020191
665.4403	0.024376
666.1330	0.021941
666.8259	0.021515
667.5188	0.022857
668.2117	0.020978
668.9048	0.022351
669.5980	0.021042
670.2913	0.021908
670.9846	0.020958
671.6781	0.028115
672.3716	0.033816
673.0652	0.032063
673.7589	0.028516
674.4527	0.027651
675.1466	0.026194
675.8406	0.026321
676.5347	0.026553
677.2288	0.021169
677.9231	0.028854
678.6174	0.029741
679.3119	0.032380
680.0064	0.034027
680.7010	0.031599
681.3957	0.034343
682.0905	0.033879
682.7854	0.030311
683.4803	0.031092
684.1754	0.033985
684.8705	0.037848
685.5658	0.045575
686.2611	0.044414
686.9565	0.041712
687.6520	0.043232
688.3476	0.038840
689.0433	0.038144
689.7390	0.038102
690.4349	0.033182
691.1308	0.037405
691.8269	0.037257
692.5230	0.034175
693.2192	0.037785
693.9155	0.036497
694.6119	0.032802
695.3083	0.035842
696.0049	0.029424
696.7016	0.034027
697.3983	0.038482
698.0951	0.039242
698.7920	0.037067
699.4890	0.034871
700.1861	0.032718
700.8833	0.032190
701.5806	0.028917
702.2779	0.032063
702.9753	0.030058
703.6729	0.027440
704.3705	0.027102
705.0682	0.023935
705.7660	0.023745
706.4638	0.028390
707.1618	0.037025
707.8599	0.036983
708.5580	0.036370
709.2562	0.032929
709.9545	0.031451
710.6529	0.036434
711.3514	0.033077
712.0500	0.030269
712.7486	0.027925
713.4474	0.030543
714.1462	0.035104
714.8451	0.032844
715.5441	0.033605
716.2432	0.031113
716.9424	0.028136
717.6416	0.026996
718.3410	0.028179
719.0404	0.029255
719.7399	0.030670
720.4395	0.028284
721.1392	0.031810
721.8390	0.029234
722.5388	0.028284
723.2388	0.026468
723.9388	0.028643
724.6389	0.029255
725.3391	0.031535
726.0394	0.032887
726.7398	0.031155
727.4403	0.030775
728.1408	0.035272
728.8414	0.034069
729.5421	0.036919
730.2429	0.034935
730.9438	0.044013
731.6448	0.042409
732.3458	0.042409
733.0470	0.042852
733.7482	0.043739
734.4495	0.050643
735.1509	0.045533
735.8524	0.048426
736.5539	0.046610
737.2556	0.050706
737.9573	0.042240
738.6591	0.041817
739.3610	0.046652
740.0630	0.042577
740.7651	0.040297
741.4672	0.033879
742.1695	0.033752
742.8718	0.032908
743.5742	0.031008
744.2767	0.029572
744.9792	0.030290
745.6819	0.027397
746.3846	0.029424
747.0874	0.029002
747.7903	0.030205
748.4933	0.029255
749.1964	0.031050
749.8995	0.036518
750.6028	0.039136
751.3061	0.037848
752.0095	0.039833
752.7130	0.037236
753.4166	0.037405
754.1202	0.041353
754.8239	0.041015
755.5278	0.042176
756.2317	0.043971
756.9356	0.051930
757.6397	0.057230
758.3438	0.057694
759.0481	0.055097
759.7524	0.059468
760.4568	0.063289
761.1613	0.061136
761.8658	0.054021
762.5705	0.047201
763.2752	0.050537
763.9800	0.047053
764.6849	0.056892
765.3898	0.055477
766.0949	0.049312
766.8000	0.040973
767.5052	0.038587
768.2105	0.043316
768.9159	0.048025
769.6214	0.046526
770.3269	0.044963
771.0325	0.047243
771.7382	0.044710
772.4440	0.038545
773.1499	0.039094
773.8558	0.036856
774.5618	0.033309
775.2679	0.029192
775.9741	0.026553
776.6804	0.025941
777.3868	0.025307
778.0932	0.027017
778.7997	0.026933
779.5063	0.031725
780.2130	0.027841
780.9197	0.030944
781.6265	0.035357
782.3335	0.034196
783.0405	0.033879
783.7475	0.033098
784.4547	0.031578
785.1619	0.029973
785.8692	0.027862
786.5766	0.026321
787.2841	0.027693
787.9917	0.029952
788.6993	0.030775
789.4070	0.029952
790.1148	0.024969
790.8227	0.024758
791.5306	0.026321
792.2387	0.022816
792.9468	0.021802
793.6550	0.023133
794.3632	0.031050
795.0716	0.031873
795.7800	0.029488
796.4885	0.021528
797.1971	0.020008
797.9058	0.025265
798.6145	0.021190
799.3233	0.021887
800.0322	0.020156
800.7412	0.019100
801.4503	0.017875
802.1594	0.017685
802.8686	0.019100
803.5779	0.015595
804.2873	0.015764
804.9968	0.017664
805.7063	0.017791
806.4159	0.025054
807.1256	0.023977
807.8354	0.023386
808.5452	0.021422
809.2551	0.023428
809.9651	0.019860
810.6752	0.018044
811.3853	0.018868
812.0956	0.014814
812.8059	0.015616
813.5163	0.017052
814.2267	0.019248
814.9373	0.017327
815.6479	0.013568
816.3586	0.013927
817.0694	0.016693
817.7802	0.014265
818.4912	0.011879
819.2022	0.012365
819.9133	0.013336
820.6244	0.015258
821.3357	0.014962
822.0470	0.014645
822.7584	0.011499
823.4698	0.012154
824.1814	0.010507
824.8930	0.010148
825.6047	0.013020
826.3165	0.011858
827.0283	0.013167
827.7402	0.012703
828.4522	0.013252
829.1643	0.014202
829.8765	0.011162
830.5887	0.009916
831.3010	0.011837
832.0134	0.007488
832.7259	0.007636
833.4384	0.007488
834.1510	0.010993
834.8637	0.010317
835.5765	0.010402
836.2893	0.009747
837.0022	0.008691
837.7152	0.007615
838.4283	0.007594
839.1414	0.006411
839.8546	0.008079
840.5679	0.007467
841.2813	0.007425
841.9947	0.005503
842.7082	0.006749
843.4218	0.006242
844.1355	0.006158
844.8492	0.005250
845.5631	0.006010
846.2770	0.005271
846.9909	0.006348
847.7050	0.004849
848.4191	0.006834
849.1333	0.004574
849.8475	0.005229
850.5619	0.005672
851.2763	0.004743
851.9908	0.004680
852.7053	0.009388
853.4200	0.014202
854.1347	0.015025
854.8495	0.012893
855.5643	0.012597
856.2792	0.012006
856.9942	0.011542
857.7093	0.009832
858.4245	0.011879
859.1397	0.009240
859.8550	0.009620
860.5704	0.008100
861.2858	0.006158
862.0013	0.006052
862.7169	0.006010
863.4326	0.006855
864.1483	0.007192
864.8642	0.004870
865.5800	0.006179
866.2960	0.004110
867.0120	0.005651
867.7281	0.005862
868.4443	0.005356
869.1606	0.005609
869.8769	0.005102
870.5933	0.006242
871.3097	0.005672
872.0263	0.004068
872.7429	0.004997
873.4596	0.004722
874.1763	0.003498
874.8932	0.004384
875.6101	0.004997
876.3270	0.006221
877.0441	0.005081
877.7612	0.005736
878.4784	0.005968
879.1957	0.007847
879.9130	0.007340
880.6304	0.009810
881.3479	0.006327
882.0654	0.007192
882.7831	0.005313
883.5007	0.004574
884.2185	0.005715
884.9363	0.006981
885.6542	0.006517
886.3722	0.007024
887.0903	0.006622
887.8084	0.005905
888.5266	0.004722
889.2448	0.004321
889.9632	0.003645
890.6816	0.004511
891.4001	0.003835
892.1186	0.004596
892.8372	0.005208
893.5559	0.003751
894.2747	0.004828
894.9935	0.003878
895.7124	0.005313
896.4314	0.004026
897.1504	0.005356
897.8695	0.004912
898.5887	0.004321
899.3079	0.005060
900.0272	0.003793
900.7466	0.005609
901.4661	0.004954
902.1856	0.004596
902.9052	0.002822
903.6249	0.003835
904.3446	0.004659
905.0644	0.003941
905.7843	0.007277
906.5043	0.005250
907.2243	0.003878
907.9444	0.004743
908.6645	0.003962
909.3847	0.002379
910.1050	0.004954
910.8254	0.003983
911.5458	0.002885
912.2663	0.002717
912.9869	0.004406
913.7075	0.003540
914.4283	0.003265
915.1490	0.003350
915.8699	0.003624
916.5908	0.003603
917.3118	0.003308
918.0328	0.004279
918.7539	0.004026
919.4751	0.004047
920.1964	0.003624
920.9177	0.004659
921.6391	0.003730
922.3606	0.003287
923.0821	0.003455
923.8037	0.003392
924.5254	0.002294
925.2471	0.002717
925.9689	0.001872
926.6908	0.002548
927.4127	0.002590
928.1347	0.002991
928.8568	0.001978
929.5789	0.001619
930.3011	0.001703
931.0234	0.003772
931.7457	0.002463
932.4681	0.002041
933.1906	0.003223
933.9131	0.002759
934.6358	0.002252
935.3584	0.002146
936.0812	0.001049
936.8040	-0.000007
937.5269	0.000859
938.2498	0.001429
938.9728	0.001598
939.6959	0.001154
940.4190	0.004321
941.1422	-0.000091
941.8655	0.000943
942.5889	0.000626
943.3123	0.002104
944.0357	0.000267
944.7593	0.000542
945.4829	0.001133
946.2066	0.000753
946.9303	0.000964
947.6541	0.001112
948.3780	0.000837
949.1019	0.000647
949.8259	0.001661
950.5500	0.001239
951.2741	0.000605
951.9983	0.002062
952.7226	0.000289
953.4469	0.000922
954.1713	0.001218
954.8958	0.000922
955.6203	-0.000324
956.3449	0.000077
957.0696	0.000162
957.7943	0.001935
958.5191	0.000099
959.2439	0.000943
959.9688	-0.000134
960.6938	0.002231
961.4189	0.000795
962.1440	0.001766
962.8692	0.000521
963.5944	-0.000091
964.3197	0.001175
965.0451	0.000457
965.7705	0.001788
966.4960	0.000669
967.2216	0.000711
967.9472	0.001112
968.6729	0.001893
969.3987	0.000690
970.1245	0.000626
970.8504	0.000077
971.5763	0.000267
972.3023	0.001386
973.0284	0.000985
973.7545	0.001450
974.4807	0.000711
975.2070	0.000331
975.9333	0.001344
976.6597	-0.000746
977.3862	0.000859
978.1127	0.001175
978.8393	0.001239
979.5659	-0.000493
980.2926	0.000521
981.0194	-0.000303
981.7462	0.000542
982.4731	0.000267
983.2001	-0.000493
983.9271	0.000099
984.6542	-0.000028
985.3814	0.001049
986.1086	0.000120
986.8358	0.001260
987.5632	0.000035
988.2906	0.001070
989.0180	0.000246
989.7456	0.000626
990.4732	0.000035
991.2008	0.000584
991.9285	0.000141
992.6563	0.001682
993.3841	0.000246
994.1120	0.001281
994.8400	-0.000598
995.5680	0.001661
996.2961	0.000162
997.0242	-0.000640
997.7524	-0.000007
998.4807	0.000204
999.2090	0.000267
999.9374	-0.001042
1000.67	0.000394
1001.39	0.000056
1002.12	-0.000134
1002.85	-0.000788
1003.58	-0.001042
1004.31	-0.000429
1005.04	0.000331
1005.77	0.000246
1006.5	0.001049
1007.22	0.001471
1007.95	0.000964
1008.68	0.000077
1009.41	0.001788
1010.14	-0.000429
1010.87	0.001513
1011.6	-0.000070
1012.33	0.000880
1013.06	0.000584
1013.79	0.000711
1014.52	0.000436
1015.25	0.000415
1015.98	0.000880
1016.71	0.000943
1017.44	0.001070
1018.17	0.001175
1018.9	0.000500
1019.63	-0.000049
1020.36	-0.000239
1021.09	0.000457
1021.82	0.000035
1022.55	0.000732
1023.03	-0.000197