File: Auto_Polymerization/Spectra/spectra_while_stopped/spectrum_2025-06-19_12-50-27.txt
# Wavelength (nm)	Intensity (a.u.)
197.7802	0.001156
198.3922	0.001240
199.0044	0.000670
199.6168	0.000670
200.2292	0.001282
200.8418	-0.000512
201.4546	0.000691
202.0674	0.001557
202.6805	0.001134
203.2936	-0.000237
203.9069	0.001029
204.5203	0.000522
205.1338	0.001261
205.7475	-0.000744
206.3614	0.001578
206.9753	0.001557
207.5894	0.002169
208.2036	0.001620
208.8180	0.001198
209.4325	0.000459
210.0471	0.000966
210.6618	0.000121
211.2767	0.001177
211.8918	0.002063
212.5069	0.001768
213.1222	-0.000765
213.7376	0.000121
214.3532	0.000543
214.9689	0.001599
215.5847	0.001493
216.2007	0.001282
216.8168	0.001156
217.4330	0.000142
218.0494	0.001303
218.6659	0.000142
219.2825	-0.000005
219.8992	0.000923
220.5161	0.000966
221.1332	0.001873
221.7503	0.000881
222.3676	0.001599
222.9850	0.001810
223.6026	0.002042
224.2203	0.001620
224.8381	0.000269
225.4561	-0.000301
226.0742	0.001303
226.6924	-0.000174
227.3107	0.001472
227.9292	-0.000364
228.5478	0.000354
229.1666	0.001240
229.7855	0.000586
230.4045	0.001409
231.0236	0.001134
231.6429	0.000586
232.2623	0.000185
232.8818	0.000375
233.5015	-0.000385
234.1213	0.000164
234.7413	0.000755
235.3613	0.000649
235.9815	0.000480
236.6018	-0.000090
237.2223	-0.000364
237.8429	0.000206
238.4636	0.002253
239.0845	0.000164
239.7055	0.001219
240.3266	0.000079
240.9478	0.001409
241.5692	0.000375
242.1907	0.001346
242.8124	0.000966
243.4341	0.001388
244.0560	0.000058
244.6781	0.000037
245.3002	0.000206
245.9225	0.000164
246.5449	0.001177
247.1675	0.001177
247.7902	0.000100
248.4130	0.000016
249.0359	0.000332
249.6590	0.001768
250.2822	0.001789
250.9056	0.001113
251.5290	0.000839
252.1526	0.000712
252.7763	-0.001039
253.4002	0.000459
254.0242	0.000586
254.6483	0.000480
255.2725	0.000375
255.8969	0.001113
256.5214	0.001725
257.1460	-0.000195
257.7708	-0.001673
258.3957	0.000459
259.0207	0.000248
259.6459	0.002021
260.2711	0.000818
260.8965	0.000121
261.5221	0.001303
262.1477	0.001092
262.7735	-0.000449
263.3995	0.002844
264.0255	-0.000237
264.6517	-0.000047
265.2780	0.000881
265.9044	0.002190
266.5310	-0.000153
267.1577	0.000670
267.7845	0.001451
268.4114	0.001578
269.0385	-0.000132
269.6657	0.002823
270.2931	0.000881
270.9205	0.000839
271.5481	0.000565
272.1758	0.000923
272.8037	-0.000069
273.4316	0.001008
274.0597	0.000712
274.6880	0.000438
275.3163	0.001514
275.9448	0.000058
276.5734	0.000649
277.2022	0.000691
277.8310	-0.000512
278.4600	0.000269
279.0891	0.001620
279.7184	0.001937
280.3477	0.001198
280.9772	-0.000913
281.6069	0.000248
282.2366	-0.000174
282.8665	-0.000259
283.4965	0.001134
284.1266	0.001388
284.7569	0.000902
285.3873	0.000543
286.0178	0.000860
286.6484	-0.000026
287.2792	0.001219
287.9101	0.000881
288.5411	-0.000174
289.1723	0.000142
289.8035	0.000670
290.4349	0.000269
291.0665	0.001493
291.6981	-0.000237
292.3299	-0.000364
292.9618	-0.000364
293.5938	0.000501
294.2260	0.000923
294.8582	0.000375
295.4906	-0.000491
296.1232	-0.001061
296.7558	0.001346
297.3886	0.000839
298.0215	-0.001187
298.6545	-0.000195
299.2877	0.001409
299.9210	0.000755
300.5544	0.000987
301.1879	-0.000111
301.8215	0.000712
302.4553	0.001915
303.0892	0.000860
303.7233	-0.000765
304.3574	0.000945
304.9917	0.000079
305.6261	-0.000449
306.2606	-0.000575
306.8953	0.000121
307.5301	0.001156
308.1650	0.000670
308.8000	0.000543
309.4351	0.001641
310.0704	0.001578
310.7058	0.000100
311.3413	0.001894
311.9770	-0.000385
312.6127	0.000269
313.2486	-0.000470
313.8846	0.000100
314.5208	-0.000343
315.1570	0.001852
315.7934	0.000565
316.4299	0.002084
317.0666	0.001747
317.7033	0.000121
318.3402	0.001219
318.9772	0.000797
319.6143	0.000628
320.2516	0.002401
320.8890	0.000206
321.5265	0.001747
322.1641	0.001071
322.8018	0.001346
323.4397	0.000501
324.0777	0.000797
324.7158	0.000881
325.3540	0.001346
325.9924	-0.000955
326.6308	0.001873
327.2694	0.000016
327.9082	0.000354
328.5470	0.000164
329.1860	0.001747
329.8251	-0.000216
330.4643	0.001409
331.1036	-0.000301
331.7431	0.001219
332.3826	0.000712
333.0223	0.000501
333.6622	0.000818
334.3021	0.001472
334.9422	0.000354
335.5823	0.001240
336.2227	0.000923
336.8631	0.001789
337.5036	0.000438
338.1443	0.000945
338.7851	0.000290
339.4260	0.001071
340.0670	0.000016
340.7082	-0.000111
341.3495	0.000945
341.9909	0.001915
342.6324	0.000776
343.2740	0.001873
343.9158	0.000607
344.5577	0.000480
345.1997	0.001493
345.8418	0.001451
346.4840	0.000164
347.1264	0.000290
347.7689	0.000016
348.4115	0.000691
349.0542	0.001578
349.6971	0.000332
350.3400	0.000206
350.9831	0.000586
351.6263	-0.000322
352.2696	-0.000111
352.9131	0.001535
353.5566	0.000966
354.2003	0.000628
354.8441	0.000037
355.4881	0.001261
356.1321	0.001557
356.7763	0.000100
357.4206	0.002190
358.0650	0.001324
358.7095	0.001409
359.3541	0.000185
359.9989	0.000058
360.6438	0.001346
361.2888	0.001113
361.9339	-0.000786
362.5791	0.001578
363.2245	0.000269
363.8699	0.001789
364.5155	-0.000132
365.1612	0.001134
365.8071	0.000459
366.4530	0.001810
367.0991	0.000375
367.7453	0.001282
368.3916	0.000691
369.0380	0.000565
369.6845	0.000691
370.3312	-0.000280
370.9780	0.000543
371.6249	0.001261
372.2719	-0.000828
372.9190	0.001768
373.5663	0.000142
374.2136	0.001873
374.8611	0.000712
375.5087	0.000543
376.1564	0.001683
376.8043	0.000776
377.4522	0.000206
378.1003	0.000142
378.7485	0.001219
379.3968	0.001852
380.0452	-0.000005
380.6938	0.001029
381.3424	0.000691
381.9912	0.000649
382.6401	0.000797
383.2891	0.001113
383.9382	-0.000786
384.5875	0.001303
385.2368	-0.000195
385.8863	0.000459
386.5359	0.001008
387.1856	0.000607
387.8355	0.000227
388.4854	0.001029
389.1355	0.000628
389.7856	0.000058
390.4359	0.001472
391.0863	0.001050
391.7369	0.002359
392.3875	0.003140
393.0383	0.001451
393.6891	0.003266
394.3401	0.002717
394.9912	0.002823
395.6425	0.003541
396.2938	0.002654
396.9453	0.002000
397.5968	0.004427
398.2485	0.002907
398.9003	0.003731
399.5522	0.004786
400.2043	0.004891
400.8564	0.006643
401.5087	0.005736
402.1610	0.004406
402.8135	0.005883
403.4661	0.006538
404.1189	0.006200
404.7717	0.005546
405.4246	0.008184
406.0777	0.008121
406.7309	0.007889
407.3842	0.007720
408.0376	0.007445
408.6911	0.007213
409.3448	0.007910
409.9985	0.008184
410.6524	0.009155
411.3064	0.009282
411.9605	0.008142
412.6147	0.010126
413.2690	0.009999
413.9234	0.011012
414.5780	0.010970
415.2326	0.009978
415.8874	0.010464
416.5423	0.011709
417.1973	0.012173
417.8524	0.012827
418.5077	0.012511
419.1630	0.012110
419.8185	0.014706
420.4741	0.015044
421.1298	0.015740
421.7856	0.017260
422.4415	0.017091
423.0975	0.017598
423.7536	0.018189
424.4099	0.016838
425.0663	0.016838
425.7228	0.016922
426.3793	0.016627
427.0361	0.018083
427.6929	0.017049
428.3498	0.018104
429.0068	0.017999
429.6640	0.020299
430.3213	0.022030
430.9787	0.023740
431.6362	0.019793
432.2938	0.019455
432.9515	0.019117
433.6093	0.020173
434.2673	0.021143
434.9253	0.019223
435.5835	0.020700
436.2418	0.020447
436.9001	0.021376
437.5586	0.020257
438.2173	0.021840
438.8760	0.019919
439.5348	0.021439
440.1938	0.020109
440.8528	0.021502
441.5120	0.025597
442.1713	0.024077
442.8307	0.021819
443.4902	0.024563
444.1498	0.023465
444.8095	0.022895
445.4694	0.025280
446.1293	0.021840
446.7894	0.023402
447.4496	0.022220
448.1098	0.023022
448.7702	0.021608
449.4307	0.022937
450.0914	0.021566
450.7521	0.020890
451.4129	0.020616
452.0739	0.019603
452.7349	0.020911
453.3961	0.018104
454.0574	0.019856
454.7188	0.018948
455.3803	0.017175
456.0419	0.015846
456.7036	0.016690
457.3654	0.019012
458.0274	0.017007
458.6894	0.019645
459.3516	0.017239
460.0138	0.016373
460.6762	0.014622
461.3387	0.014178
462.0013	0.013925
462.6640	0.013418
463.3268	0.014347
463.9897	0.013229
464.6528	0.014790
465.3159	0.014875
465.9792	0.016563
466.6425	0.011202
467.3060	0.013165
467.9696	0.012996
468.6333	0.010337
469.2970	0.010548
469.9610	0.009239
470.6250	0.009366
471.2891	0.008374
471.9533	0.007466
472.6177	0.010717
473.2821	0.007994
473.9467	0.009683
474.6113	0.007910
475.2761	0.009007
475.9410	0.008669
476.6060	0.008226
477.2711	0.005989
477.9363	0.006960
478.6016	0.007424
479.2670	0.007298
479.9325	0.006854
480.5982	0.007298
481.2639	0.008142
481.9298	0.008902
482.5957	0.006200
483.2618	0.007171
483.9280	0.005905
484.5943	0.008374
485.2606	0.005947
485.9271	0.018716
486.5937	0.013482
487.2605	0.011033
487.9273	0.006559
488.5942	0.005060
489.2612	0.004512
489.9284	0.005820
490.5956	0.005250
491.2630	0.006474
491.9304	0.003224
492.5980	0.004026
493.2657	0.005081
493.9334	0.004512
494.6013	0.004955
495.2693	0.005905
495.9374	0.003709
496.6056	0.003921
497.2739	0.004554
497.9423	0.004849
498.6109	0.006031
499.2795	0.005335
499.9482	0.004047
500.6171	0.004174
501.2860	0.002148
501.9551	0.003752
502.6242	0.003182
503.2935	0.003984
503.9628	0.004279
504.6323	0.004364
505.3019	0.002084
505.9716	0.003161
506.6414	0.003456
507.3113	0.005039
507.9813	0.002760
508.6514	0.004047
509.3216	0.003414
509.9919	0.003393
510.6623	0.002485
511.3329	0.002612
512.0035	0.004300
512.6742	0.004216
513.3451	0.003646
514.0160	0.004891
514.6871	0.002886
515.3582	0.003076
516.0295	0.003308
516.7008	0.003034
517.3723	0.003899
518.0439	0.003836
518.7155	0.003414
519.3873	0.002929
520.0592	0.002274
520.7312	0.003456
521.4033	0.003520
522.0755	0.003266
522.7478	0.004891
523.4202	0.004364
524.0927	0.003541
524.7653	0.004089
525.4380	0.005250
526.1108	0.005377
526.7837	0.004891
527.4568	0.004343
528.1299	0.004153
528.8031	0.004596
529.4765	0.005588
530.1499	0.004469
530.8234	0.005567
531.4971	0.005968
532.1708	0.005736
532.8447	0.005060
533.5186	0.008100
534.1927	0.007509
534.8668	0.008311
535.5411	0.007192
536.2155	0.007403
536.8899	0.006306
537.5645	0.008902
538.2392	0.009049
538.9139	0.009324
539.5888	0.010886
540.2638	0.008881
540.9389	0.010084
541.6140	0.011983
542.2893	0.011709
542.9647	0.013630
543.6402	0.013798
544.3158	0.014094
544.9915	0.015614
545.6673	0.013334
546.3432	0.014347
547.0192	0.014389
547.6953	0.016669
548.3715	0.018758
549.0478	0.017534
549.7242	0.016753
550.4007	0.016690
551.0773	0.016289
551.7540	0.019117
552.4308	0.021819
553.1077	0.021544
553.7847	0.022178
554.4618	0.019983
555.1390	0.020996
555.8163	0.025977
556.4937	0.025470
557.1712	0.023972
557.8488	0.026272
558.5266	0.024964
559.2044	0.024584
559.8823	0.027475
560.5603	0.030177
561.2384	0.032752
561.9166	0.033195
562.5949	0.030029
563.2733	0.034293
563.9519	0.037100
564.6305	0.035559
565.3092	0.037881
565.9880	0.039696
566.6669	0.039802
567.3459	0.047674
568.0250	0.053120
568.7043	0.060993
569.3836	0.073002
570.0630	0.093855
570.7425	0.096599
571.4221	0.117600
572.1018	0.128871
572.7816	0.113126
573.4615	0.132290
574.1415	0.150674
574.8216	0.163591
575.5018	0.163338
576.1821	0.150083
576.8626	0.173131
577.5431	0.187463
578.2237	0.225729
578.9044	0.193964
579.5851	0.194322
580.2660	0.203293
580.9470	0.198016
581.6281	0.300045
582.3093	0.290061
582.9906	0.227650
583.6720	0.189869
584.3535	0.189299
585.0351	0.212727
585.7167	0.224399
586.3985	0.191790
587.0804	0.205403
587.7624	0.218532
588.4445	0.199114
589.1266	0.168425
589.8089	0.160193
590.4913	0.143688
591.1737	0.130074
591.8563	0.125663
592.5389	0.148690
593.2217	0.197763
593.9046	0.189299
594.5875	0.164182
595.2705	0.193035
595.9537	0.170008
596.6369	0.142506
597.3203	0.141028
598.0037	0.141007
598.6872	0.149492
599.3709	0.182165
600.0546	0.175580
600.7384	0.177163
601.4223	0.180983
602.1064	0.165174
602.7905	0.168826
603.4747	0.180498
604.1590	0.172498
604.8434	0.149260
605.5279	0.161797
606.2125	0.168298
606.8972	0.155001
607.5819	0.158800
608.2668	0.148289
608.9518	0.139277
609.6369	0.128597
610.3220	0.147888
611.0073	0.136491
611.6927	0.134823
612.3781	0.124481
613.0637	0.128006
613.7493	0.126676
614.4351	0.126423
615.1209	0.120956
615.8068	0.126866
616.4929	0.110403
617.1790	0.105168
617.8652	0.108461
618.5515	0.101433
619.2379	0.091914
619.9244	0.094995
620.6110	0.093771
621.2977	0.073530
621.9845	0.076041
622.6714	0.083492
623.3584	0.088368
624.0454	0.084315
624.7326	0.088748
625.4199	0.080959
626.1072	0.076928
626.7947	0.068464
627.4822	0.069034
628.1698	0.064538
628.8576	0.054365
629.5454	0.062470
630.2333	0.061731
630.9213	0.056011
631.6094	0.051241
632.2976	0.050313
632.9859	0.043749
633.6743	0.044445
634.3628	0.042334
635.0514	0.041174
635.7400	0.040920
636.4288	0.045437
637.1177	0.041596
637.8066	0.040182
638.4957	0.040561
639.1848	0.041427
639.8740	0.038303
640.5633	0.038909
641.2528	0.033628
641.9423	0.029649
642.6319	0.029656
643.3216	0.028838
644.0113	0.031061
644.7012	0.028404
645.3912	0.026754
646.0812	0.025354
646.7714	0.025569
647.4616	0.022874
648.1520	0.031413
648.8424	0.032354
649.5329	0.032947
650.2236	0.031910
650.9143	0.030184
651.6051	0.028587
652.2960	0.031616
652.9870	0.032851
653.6780	0.034040
654.3692	0.032858
655.0605	0.067314
655.7518	0.944998
656.4433	1.000000
657.1348	0.857412
657.8264	0.523669
658.5181	0.409758
659.2099	0.328410
659.9018	0.099281
660.5938	0.031531
661.2859	0.025124
661.9781	0.023746
662.6704	0.022987
663.3627	0.021863
664.0552	0.021294
664.7477	0.021551
665.4403	0.023849
666.1330	0.024015
666.8259	0.023005
667.5188	0.022810
668.2117	0.021015
668.9048	0.021967
669.5980	0.018780
670.2913	0.021798
670.9846	0.022135
671.6781	0.027792
672.3716	0.035116
673.0652	0.033765
673.7589	0.031211
674.4527	0.028594
675.1466	0.027074
675.8406	0.024816
676.5347	0.024774
677.2288	0.022663
677.9231	0.028763
678.6174	0.031000
679.3119	0.034652
680.0064	0.034715
680.7010	0.035095
681.3957	0.033828
682.0905	0.034061
682.7854	0.030451
683.4803	0.031971
684.1754	0.033427
684.8705	0.037881
685.5658	0.046746
686.2611	0.044867
686.9565	0.042419
687.6520	0.044466
688.3476	0.039738
689.0433	0.038008
689.7390	0.036931
690.4349	0.031507
691.1308	0.038113
691.8269	0.037290
692.5230	0.039211
693.2192	0.039654
693.9155	0.036593
694.6119	0.032372
695.3083	0.036762
696.0049	0.030958
696.7016	0.035728
697.3983	0.038577
698.0951	0.039232
698.7920	0.035981
699.4890	0.033005
700.1861	0.032077
700.8833	0.031802
701.5806	0.029966
702.2779	0.029375
702.9753	0.030599
703.6729	0.029037
704.3705	0.028235
705.0682	0.024162
705.7660	0.023824
706.4638	0.031591
707.1618	0.039021
707.8599	0.037353
708.5580	0.037923
709.2562	0.035306
709.9545	0.035116
710.6529	0.034863
711.3514	0.032541
712.0500	0.030367
712.7486	0.029670
713.4474	0.032182
714.1462	0.036382
714.8451	0.034609
715.5441	0.033871
716.2432	0.029438
716.9424	0.028404
717.6416	0.028193
718.3410	0.029586
719.0404	0.028066
719.7399	0.029924
720.4395	0.029966
721.1392	0.030916
721.8390	0.026737
722.5388	0.028151
723.2388	0.027560
723.9388	0.028425
724.6389	0.027349
725.3391	0.030367
726.0394	0.033259
726.7398	0.034103
727.4403	0.033617
728.1408	0.032499
728.8414	0.034609
729.5421	0.038535
730.2429	0.035454
730.9438	0.041997
731.6448	0.042609
732.3458	0.040857
733.0470	0.043179
733.7482	0.044952
734.4495	0.051473
735.1509	0.046914
735.8524	0.046978
736.5539	0.049004
737.2556	0.047273
737.9573	0.041110
738.6591	0.040646
739.3610	0.043727
740.0630	0.046408
740.7651	0.038725
741.4672	0.037374
742.1695	0.035580
742.8718	0.035791
743.5742	0.030599
744.2767	0.027919
744.9792	0.030705
745.6819	0.028636
746.3846	0.026758
747.0874	0.029860
747.7903	0.031275
748.4933	0.029122
749.1964	0.032879
749.8995	0.035897
750.6028	0.040815
751.3061	0.038915
752.0095	0.039844
752.7130	0.036868
753.4166	0.038957
754.1202	0.041849
754.8239	0.039506
755.5278	0.041891
756.2317	0.044234
756.9356	0.052508
757.6397	0.059747
758.3438	0.057341
759.0481	0.054048
759.7524	0.060064
760.4568	0.062913
761.1613	0.062386
761.8658	0.054977
762.5705	0.049806
763.2752	0.049405
763.9800	0.049257
764.6849	0.057848
765.3898	0.056560
766.0949	0.052001
766.8000	0.041997
767.5052	0.038493
768.2105	0.044065
768.9159	0.048096
769.6214	0.045880
770.3269	0.045036
771.0325	0.049321
771.7382	0.045416
772.4440	0.040899
773.1499	0.040139
773.8558	0.037121
774.5618	0.033174
775.2679	0.030726
775.9741	0.026293
776.6804	0.026906
777.3868	0.024668
778.0932	0.023655
778.7997	0.029206
779.5063	0.031760
780.2130	0.029438
780.9197	0.032393
781.6265	0.034525
782.3335	0.035306
783.0405	0.034673
783.7475	0.036361
784.4547	0.030768
785.1619	0.028974
785.8692	0.028615
786.5766	0.026631
787.2841	0.028425
787.9917	0.028932
788.6993	0.031106
789.4070	0.029544
790.1148	0.028277
790.8227	0.025935
791.5306	0.024689
792.2387	0.022705
792.9468	0.020932
793.6550	0.022937
794.3632	0.032077
795.0716	0.031676
795.7800	0.029164
796.4885	0.023127
797.1971	0.021228
797.9058	0.024922
798.6145	0.025048
799.3233	0.021608
800.0322	0.020215
800.7412	0.019603
801.4503	0.019729
802.1594	0.018020
802.8686	0.018484
803.5779	0.020088
804.2873	0.015529
804.9968	0.018041
805.7063	0.019645
806.4159	0.024774
807.1256	0.022347
807.8354	0.022705
808.5452	0.024162
809.2551	0.022726
809.9651	0.019413
810.6752	0.019750
811.3853	0.017956
812.0956	0.016542
812.8059	0.013545
813.5163	0.016711
814.2267	0.019497
814.9373	0.017260
815.6479	0.015846
816.3586	0.013376
817.0694	0.015466
817.7802	0.014474
818.4912	0.014178
819.2022	0.011582
819.9133	0.013207
820.6244	0.014474
821.3357	0.015698
822.0470	0.013883
822.7584	0.012680
823.4698	0.011667
824.1814	0.011097
824.8930	0.010231
825.6047	0.013862
826.3165	0.012532
827.0283	0.014031
827.7402	0.014854
828.4522	0.011709
829.1643	0.012047
829.8765	0.013397
830.5887	0.009028
831.3010	0.009725
832.0134	0.008838
832.7259	0.011139
833.4384	0.011646
834.1510	0.009239
834.8637	0.010632
835.5765	0.009788
836.2893	0.008311
837.0022	0.007488
837.7152	0.008669
838.4283	0.006306
839.1414	0.007530
839.8546	0.008564
840.5679	0.007023
841.2813	0.006728
841.9947	0.006496
842.7082	0.005440
843.4218	0.004828
844.1355	0.006538
844.8492	0.004786
845.5631	0.005567
846.2770	0.003604
846.9909	0.004406
847.7050	0.005419
848.4191	0.003541
849.1333	0.004427
849.8475	0.005398
850.5619	0.005335
851.2763	0.005229
851.9908	0.005440
852.7053	0.008881
853.4200	0.014347
854.1347	0.015170
854.8495	0.015909
855.5643	0.013123
856.2792	0.012300
856.9942	0.011561
857.7093	0.010168
858.4245	0.010358
859.1397	0.009324
859.8550	0.009239
860.5704	0.008395
861.2858	0.007466
862.0013	0.004849
862.7169	0.006200
863.4326	0.008163
864.1483	0.007910
864.8642	0.007108
865.5800	0.006306
866.2960	0.007171
867.0120	0.006010
867.7281	0.005736
868.4443	0.005926
869.1606	0.005356
869.8769	0.004744
870.5933	0.004997
871.3097	0.006010
872.0263	0.005609
872.7429	0.004153
873.4596	0.005440
874.1763	0.005208
874.8932	0.004955
875.6101	0.005757
876.3270	0.005229
877.0441	0.006538
877.7612	0.006918
878.4784	0.007108
879.1957	0.006728
879.9130	0.007635
880.6304	0.008923
881.3479	0.008036
882.0654	0.007129
882.7831	0.006137
883.5007	0.007002
884.2185	0.005504
884.9363	0.006791
885.6542	0.006812
886.3722	0.006474
887.0903	0.006622
887.8084	0.006116
888.5266	0.005482
889.2448	0.006749
889.9632	0.004343
890.6816	0.005525
891.4001	0.004406
892.1186	0.005419
892.8372	0.004258
893.5559	0.005461
894.2747	0.004744
894.9935	0.004976
895.7124	0.006580
896.4314	0.005968
897.1504	0.004554
897.8695	0.004659
898.5887	0.004533
899.3079	0.005250
900.0272	0.004659
900.7466	0.005292
901.4661	0.005862
902.1856	0.005398
902.9052	0.004849
903.6249	0.004132
904.3446	0.005419
905.0644	0.005609
905.7843	0.005187
906.5043	0.006327
907.2243	0.004153
907.9444	0.004406
908.6645	0.004216
909.3847	0.003013
910.1050	0.003330
910.8254	0.002865
911.5458	0.003878
912.2663	0.004765
912.9869	0.004026
913.7075	0.004638
914.4283	0.003330
915.1490	0.003266
915.8699	0.004026
916.5908	0.002886
917.3118	0.005250
918.0328	0.004512
918.7539	0.004089
919.4751	0.002591
920.1964	0.003583
920.9177	0.004132
921.6391	0.003899
922.3606	0.003435
923.0821	0.003899
923.8037	0.003878
924.5254	0.002675
925.2471	0.002739
925.9689	0.003752
926.6908	0.002274
927.4127	0.002105
928.1347	0.004723
928.8568	0.002760
929.5789	0.004279
930.3011	0.001451
931.0234	0.001134
931.7457	0.003583
932.4681	0.002084
933.1906	0.002464
933.9131	0.003562
934.6358	0.003245
935.3584	0.003857
936.0812	0.002380
936.8040	0.002802
937.5269	0.002148
938.2498	0.001979
938.9728	0.002253
939.6959	0.001768
940.4190	0.002422
941.1422	0.002739
941.8655	0.001177
942.5889	0.001430
943.3123	0.001409
944.0357	0.002000
944.7593	0.001768
945.4829	0.002359
946.2066	0.002126
946.9303	0.002675
947.6541	0.001388
948.3780	0.001324
949.1019	0.002781
949.8259	0.001852
950.5500	0.001557
951.2741	0.000586
951.9983	0.001662
952.7226	0.002886
953.4469	0.001367
954.1713	0.000354
954.8958	0.002443
955.6203	0.002675
956.3449	0.002675
957.0696	0.001852
957.7943	0.002570
958.5191	0.000565
959.2439	0.001261
959.9688	0.001557
960.6938	0.002232
961.4189	0.001261
962.1440	0.001915
962.8692	0.002359
963.5944	0.000818
964.3197	0.002274
965.0451	0.000712
965.7705	0.001810
966.4960	0.000501
967.2216	0.000459
967.9472	-0.000026
968.6729	0.001578
969.3987	0.002000
970.1245	0.001050
970.8504	0.000818
971.5763	0.000480
972.3023	0.001958
973.0284	-0.000449
973.7545	0.001219
974.4807	0.000354
975.2070	0.000797
975.9333	0.000649
976.6597	0.000121
977.3862	0.001134
978.1127	0.001472
978.8393	0.001346
979.5659	0.001451
980.2926	0.001134
981.0194	0.000121
981.7462	-0.000259
982.4731	0.000860
983.2001	0.000100
983.9271	0.002000
984.6542	0.000058
985.3814	0.001514
986.1086	0.000227
986.8358	0.001641
987.5632	0.000480
988.2906	0.002675
989.0180	0.000712
989.7456	0.001367
990.4732	-0.000132
991.2008	0.001177
991.9285	0.000565
992.6563	0.002274
993.3841	0.000185
994.1120	0.001177
994.8400	0.000501
995.5680	0.001535
996.2961	0.000628
997.0242	0.000607
997.7524	0.001092
998.4807	-0.000470
999.2090	0.000902
999.9374	0.000290
1000.67	0.000649
1001.39	-0.000237
1002.12	0.001451
1002.85	0.000712
1003.58	0.001599
1004.31	-0.000554
1005.04	0.000480
1005.77	0.001599
1006.5	0.001451
1007.22	0.000670
1007.95	0.001240
1008.68	0.001113
1009.41	0.000839
1010.14	0.000797
1010.87	0.001198
1011.6	-0.000575
1012.33	0.001071
1013.06	0.002126
1013.79	-0.000069
1014.52	-0.000259
1015.25	0.000501
1015.98	0.000417
1016.71	0.000206
1017.44	-0.000406
1018.17	0.001324
1018.9	0.000016
1019.63	0.000586
1020.36	-0.000216
1021.09	0.000438
1021.82	-0.000174
1022.55	0.000945
1023.03	0.000290