File: Auto_Polymerization/Spectra/spectra_while_stopped/spectrum_2025-06-19_11-06-50.txt
# Wavelength (nm)	Intensity (a.u.)
197.7802	-0.000100
198.3922	0.000153
199.0044	0.000596
199.6168	-0.001156
200.2292	-0.000649
200.8418	-0.000987
201.4546	0.001990
202.0674	-0.000628
202.6805	0.001293
203.2936	-0.000121
203.9069	-0.000227
204.5203	-0.000185
205.1338	0.000533
205.7475	-0.001304
206.3614	-0.000417
206.9753	0.000364
207.5894	0.000575
208.2036	-0.000311
208.8180	0.000639
209.4325	-0.001029
210.0471	-0.000860
210.6618	0.000575
211.2767	0.000048
211.8918	0.000005
212.5069	0.001462
213.1222	0.000364
213.7376	0.000364
214.3532	0.000090
214.9689	0.000153
215.5847	-0.000058
216.2007	0.000575
216.8168	-0.000185
217.4330	0.000850
218.0494	-0.001979
218.6659	-0.000734
219.2825	0.000892
219.8992	0.000343
220.5161	-0.000016
221.1332	-0.001198
221.7503	0.000428
222.3676	-0.001262
222.9850	-0.000164
223.6026	-0.000649
224.2203	0.001209
224.8381	-0.000016
225.4561	0.000364
226.0742	-0.000459
226.6924	0.000048
227.3107	0.001314
227.9292	-0.000713
228.5478	-0.000438
229.1666	0.000364
229.7855	-0.000333
230.4045	0.001124
231.0236	0.000069
231.6429	-0.001557
232.2623	0.000301
232.8818	0.000681
233.5015	0.001610
234.1213	0.001462
234.7413	-0.001135
235.3613	-0.000586
235.9815	-0.000121
236.6018	-0.000586
237.2223	0.000385
237.8429	-0.000079
238.4636	0.000512
239.0845	0.000301
239.7055	0.000491
240.3266	-0.000987
240.9478	0.000533
241.5692	-0.000185
242.1907	-0.000565
242.8124	-0.000079
243.4341	-0.000079
244.0560	0.000765
244.6781	-0.000396
245.3002	0.000322
245.9225	0.000322
246.5449	-0.002022
247.1675	0.000618
247.7902	0.000174
248.4130	0.000111
249.0359	-0.001135
249.6590	0.000702
250.2822	0.000639
250.9056	0.001188
251.5290	-0.000058
252.1526	0.001061
252.7763	0.000069
253.4002	0.000428
254.0242	0.000026
254.6483	-0.000544
255.2725	0.001167
255.8969	0.000132
256.5214	0.000512
257.1460	-0.000354
257.7708	0.000069
258.3957	0.000406
259.0207	-0.000797
259.6459	0.001040
260.2711	-0.000713
260.8965	0.000829
261.5221	-0.000839
262.1477	0.001040
262.7735	0.000618
263.3995	-0.000121
264.0255	-0.000839
264.6517	0.001188
265.2780	-0.000480
265.9044	0.000892
266.5310	0.000533
267.1577	0.000892
267.7845	0.000765
268.4114	0.000892
269.0385	-0.001747
269.6657	-0.000818
270.2931	-0.000691
270.9205	-0.000649
271.5481	0.000744
272.1758	-0.000586
272.8037	-0.000818
273.4316	0.000977
274.0597	-0.000058
274.6880	0.001103
275.3163	-0.000713
275.9448	0.000491
276.5734	-0.001072
277.2022	0.001040
277.8310	0.000111
278.4600	-0.000269
279.0891	-0.000375
279.7184	0.000048
280.3477	0.000723
280.9772	0.000132
281.6069	-0.000016
282.2366	-0.000459
282.8665	0.000364
283.4965	0.000681
284.1266	-0.000882
284.7569	0.000808
285.3873	0.001441
286.0178	0.000639
286.6484	0.000934
287.2792	0.000406
287.9101	0.000406
288.5411	0.001167
289.1723	-0.000966
289.8035	0.000829
290.4349	-0.000882
291.0665	0.000913
291.6981	0.000280
292.3299	0.000195
292.9618	-0.000607
293.5938	0.000596
294.2260	-0.001367
294.8582	0.001230
295.4906	-0.000459
296.1232	0.000955
296.7558	0.000343
297.3886	0.000385
298.0215	-0.000691
298.6545	0.000322
299.2877	-0.002191
299.9210	0.000216
300.5544	-0.001452
301.1879	0.000533
301.8215	-0.000185
302.4553	-0.001008
303.0892	0.000174
303.7233	0.000216
304.3574	-0.000480
304.9917	0.000829
305.6261	-0.000333
306.2606	-0.000755
306.8953	0.000153
307.5301	-0.000164
308.1650	-0.000185
308.8000	0.000048
309.4351	-0.000079
310.0704	0.000977
310.7058	-0.002296
311.3413	-0.000417
311.9770	-0.001473
312.6127	0.000301
313.2486	-0.001304
313.8846	0.000174
314.5208	0.000892
315.1570	0.000681
315.7934	0.000533
316.4299	0.000449
317.0666	0.000005
317.7033	0.002117
318.3402	0.000596
318.9772	0.000575
319.6143	0.000195
320.2516	0.000449
320.8890	0.000892
321.5265	-0.000058
322.1641	-0.000143
322.8018	0.000090
323.4397	0.000596
324.0777	0.000364
324.7158	-0.000649
325.3540	-0.000100
325.9924	-0.000459
326.6308	0.001525
327.2694	-0.000227
327.9082	0.000385
328.5470	0.002096
329.1860	0.000428
329.8251	0.000322
330.4643	0.000132
331.1036	0.000343
331.7431	-0.000501
332.3826	-0.002127
333.0223	0.000111
333.6622	-0.000227
334.3021	0.000132
334.9422	0.000385
335.5823	0.000554
336.2227	0.000238
336.8631	0.001040
337.5036	-0.000649
338.1443	0.000786
338.7851	0.000280
339.4260	0.001209
340.0670	-0.000565
340.7082	-0.000860
341.3495	0.000533
341.9909	0.000850
342.6324	0.001610
343.2740	-0.000670
343.9158	-0.000691
344.5577	0.000449
345.1997	-0.000755
345.8418	-0.000037
346.4840	0.000364
347.1264	-0.001452
347.7689	-0.000058
348.4115	0.000512
349.0542	-0.000185
349.6971	0.000364
350.3400	-0.000839
350.9831	-0.000143
351.6263	-0.000375
352.2696	0.000765
352.9131	-0.000459
353.5566	-0.000016
354.2003	0.001251
354.8441	-0.000079
355.4881	-0.000206
356.1321	0.000153
356.7763	0.000955
357.4206	0.000575
358.0650	0.001568
358.7095	0.000765
359.3541	-0.000143
359.9989	-0.000396
360.6438	0.000512
361.2888	-0.000354
361.9339	-0.000333
362.5791	0.000723
363.2245	-0.000755
363.8699	-0.000248
364.5155	-0.000670
365.1612	-0.000354
365.8071	0.000554
366.4530	0.001209
367.0991	0.001420
367.7453	0.000618
368.3916	-0.000903
369.0380	0.000808
369.6845	-0.000523
370.3312	0.000723
370.9780	-0.000734
371.6249	0.000533
372.2719	0.000871
372.9190	0.000575
373.5663	0.000048
374.2136	0.000892
374.8611	-0.000417
375.5087	0.000026
376.1564	-0.000185
376.8043	-0.000480
377.4522	-0.000227
378.1003	0.000195
378.7485	0.000238
379.3968	0.000406
380.0452	0.000026
380.6938	0.000216
381.3424	-0.000354
381.9912	0.001145
382.6401	0.000765
383.2891	0.000681
383.9382	0.001314
384.5875	0.000449
385.2368	-0.000079
385.8863	-0.000248
386.5359	-0.000016
387.1856	0.001040
387.8355	0.000786
388.4854	0.001188
389.1355	0.001103
389.7856	0.003151
390.4359	0.002877
391.0863	0.003151
391.7369	0.003003
392.3875	0.004249
393.0383	0.005242
393.6891	0.006677
394.3401	0.006255
394.9912	0.006128
395.6425	0.007100
396.2938	0.008240
396.9453	0.009316
397.5968	0.011512
398.2485	0.012737
398.9003	0.012378
399.5522	0.013940
400.2043	0.013772
400.8564	0.012357
401.5087	0.015925
402.1610	0.014553
402.8135	0.017255
403.4661	0.017361
404.1189	0.017931
404.7717	0.017340
405.4246	0.019789
406.0777	0.019472
406.7309	0.019789
407.3842	0.018522
408.0376	0.018543
408.6911	0.021098
409.3448	0.022386
409.9985	0.021985
410.6524	0.019282
411.3064	0.020338
411.9605	0.021014
412.6147	0.022280
413.2690	0.022745
413.9234	0.023062
414.5780	0.025110
415.2326	0.023611
415.8874	0.021964
416.5423	0.026524
417.1973	0.023231
417.8524	0.023864
418.5077	0.022175
419.1630	0.025426
419.8185	0.024772
420.4741	0.026757
421.1298	0.029058
421.7856	0.031803
422.4415	0.030430
423.0975	0.032035
423.7536	0.030916
424.4099	0.029480
425.0663	0.028192
425.7228	0.028087
426.3793	0.027580
427.0361	0.025553
427.6929	0.027517
428.3498	0.026123
429.0068	0.028910
429.6640	0.033091
430.3213	0.032373
430.9787	0.031571
431.6362	0.029121
432.2938	0.025616
432.9515	0.024265
433.6093	0.029776
434.2673	0.029016
434.9253	0.026947
435.5835	0.028382
436.2418	0.030156
436.9001	0.031190
437.5586	0.027432
438.2173	0.027179
438.8760	0.028171
439.5348	0.028192
440.1938	0.027348
440.8528	0.027010
441.5120	0.033830
442.1713	0.032183
442.8307	0.029670
443.4902	0.030916
444.1498	0.032352
444.8095	0.030599
445.4694	0.028847
446.1293	0.028446
446.7894	0.030599
447.4496	0.027812
448.1098	0.028446
448.7702	0.027263
449.4307	0.027517
450.0914	0.026186
450.7521	0.025659
451.4129	0.021985
452.0739	0.022956
452.7349	0.025426
453.3961	0.021753
454.0574	0.022745
454.7188	0.019937
455.3803	0.021267
456.0419	0.021478
456.7036	0.019726
457.3654	0.021626
458.0274	0.020655
458.6894	0.020422
459.3516	0.018269
460.0138	0.020655
460.6762	0.016537
461.3387	0.019198
462.0013	0.017044
462.6640	0.015651
463.3268	0.016432
463.9897	0.017065
464.6528	0.016749
465.3159	0.016727
465.9792	0.018121
466.6425	0.014933
467.3060	0.013370
467.9696	0.013370
468.6333	0.014342
469.2970	0.010372
469.9610	0.010858
470.6250	0.010583
471.2891	0.011428
471.9533	0.009612
472.6177	0.008535
473.2821	0.008789
473.9467	0.010604
474.6113	0.008578
475.2761	0.008007
475.9410	0.009633
476.6060	0.010858
477.2711	0.007648
477.9363	0.008725
478.6016	0.007817
479.2670	0.006065
479.9325	0.008219
480.5982	0.009211
481.2639	0.008514
481.9298	0.007754
482.5957	0.005959
483.2618	0.007142
483.9280	0.005453
484.5943	0.006973
485.2606	0.007712
485.9271	0.021309
486.5937	0.014236
487.2605	0.010794
487.9273	0.006762
488.5942	0.005896
489.2612	0.007290
489.9284	0.004291
490.5956	0.003700
491.2630	0.004756
491.9304	0.003447
492.5980	0.005347
493.2657	0.004186
493.9334	0.004608
494.6013	0.004503
495.2693	0.003426
495.9374	0.003869
496.6056	0.004334
497.2739	0.004608
497.9423	0.003067
498.6109	0.002307
499.2795	0.004418
499.9482	0.004904
500.6171	0.003869
501.2860	0.004840
501.9551	0.003595
502.6242	0.004566
503.2935	0.004080
503.9628	0.003362
504.6323	0.004038
505.3019	0.000406
505.9716	0.005664
506.6414	0.002286
507.3113	0.003827
507.9813	0.002813
508.6514	0.003172
509.3216	0.004017
509.9919	0.003531
510.6623	0.003067
511.3329	0.003742
512.0035	0.003088
512.6742	0.002011
513.3451	0.003426
514.0160	0.003447
514.6871	0.003341
515.3582	0.001737
516.0295	0.003341
516.7008	0.004566
517.3723	0.002898
518.0439	0.003996
518.7155	0.002412
519.3873	0.002792
520.0592	0.003151
520.7312	0.002581
521.4033	0.003954
522.0755	0.002729
522.7478	0.002560
523.4202	0.002454
524.0927	0.003679
524.7653	0.002645
525.4380	0.003299
526.1108	0.004840
526.7837	0.003362
527.4568	0.003700
528.1299	0.004587
528.8031	0.005030
529.4765	0.005389
530.1499	0.003996
530.8234	0.004101
531.4971	0.004418
532.1708	0.005178
532.8447	0.005981
533.5186	0.008556
534.1927	0.007986
534.8668	0.006783
535.5411	0.006867
536.2155	0.008725
536.8899	0.006867
537.5645	0.007247
538.2392	0.007986
538.9139	0.011850
539.5888	0.010203
540.2638	0.009274
540.9389	0.010816
541.6140	0.011027
542.2893	0.013286
542.9647	0.012484
543.6402	0.013033
544.3158	0.015651
544.9915	0.016474
545.6673	0.016664
546.3432	0.013286
547.0192	0.017086
547.6953	0.018754
548.3715	0.018184
549.0478	0.019557
549.7242	0.016453
550.4007	0.017720
551.0773	0.018438
551.7540	0.020338
552.4308	0.023843
553.1077	0.020802
553.7847	0.024033
554.4618	0.024075
555.1390	0.022597
555.8163	0.026271
556.4937	0.025215
557.1712	0.025089
557.8488	0.027833
558.5266	0.026440
559.2044	0.025785
559.8823	0.027327
560.5603	0.029670
561.2384	0.033091
561.9166	0.032690
562.5949	0.032774
563.2733	0.032626
563.9519	0.038813
564.6305	0.037905
565.3092	0.043078
565.9880	0.042888
566.6669	0.041937
567.3459	0.050552
568.0250	0.053339
568.7043	0.063769
569.3836	0.078042
570.0630	0.101964
570.7425	0.108847
571.4221	0.125654
572.1018	0.137773
572.7816	0.123268
573.4615	0.135936
574.1415	0.159394
574.8216	0.174659
575.5018	0.174279
576.1821	0.160893
576.8626	0.185322
577.5431	0.195604
578.2237	0.245918
578.9044	0.198666
579.5851	0.201263
580.2660	0.209919
580.9470	0.206098
581.6281	0.319268
582.3093	0.305628
582.9906	0.242012
583.6720	0.196998
584.3535	0.198349
585.0351	0.224530
585.7167	0.238972
586.3985	0.204556
587.0804	0.216359
587.7624	0.227465
588.4445	0.204599
589.1266	0.180022
589.8089	0.167903
590.4913	0.152532
591.1737	0.133065
591.8563	0.131608
592.5389	0.156142
593.2217	0.204197
593.9046	0.194042
594.5875	0.171492
595.2705	0.201600
595.9537	0.173667
596.6369	0.150991
597.3203	0.150969
598.0037	0.145649
598.6872	0.156163
599.3709	0.186124
600.0546	0.184118
600.7384	0.186145
601.4223	0.182851
602.1064	0.169887
602.7905	0.172822
603.4747	0.189756
604.1590	0.179811
604.8434	0.158655
605.5279	0.166826
606.2125	0.175166
606.8972	0.157979
607.5819	0.161062
608.2668	0.148351
608.9518	0.144150
609.6369	0.131692
610.3220	0.155973
611.0073	0.139209
611.6927	0.137203
612.3781	0.131017
613.0637	0.130003
613.7493	0.126815
614.4351	0.122508
615.1209	0.126245
615.8068	0.136612
616.4929	0.115308
617.1790	0.111381
617.8652	0.111867
618.5515	0.100592
619.2379	0.091745
619.9244	0.093835
620.6110	0.093793
621.2977	0.075445
621.9845	0.078443
622.6714	0.082624
623.3584	0.090816
624.0454	0.087818
624.7326	0.091745
625.4199	0.084334
626.1072	0.075867
626.7947	0.071455
627.4822	0.069787
628.1698	0.063706
628.8576	0.062756
629.5454	0.064170
630.2333	0.060687
630.9213	0.058385
631.6094	0.054458
632.2976	0.050045
632.9859	0.045738
633.6743	0.046076
634.3628	0.043964
635.0514	0.039573
635.7400	0.039889
636.4288	0.047026
637.1177	0.043289
637.8066	0.040628
638.4957	0.044366
639.1848	0.041008
639.8740	0.038327
640.5633	0.037954
641.2528	0.035321
641.9423	0.032132
642.6319	0.028855
643.3216	0.028362
644.0113	0.032015
644.7012	0.027130
645.3912	0.026192
646.0812	0.028561
646.7714	0.025878
647.4616	0.023959
648.1520	0.029546
648.8424	0.033052
649.5329	0.033633
650.2236	0.028186
650.9143	0.026932
651.6051	0.030218
652.2960	0.032420
652.9870	0.033108
653.6780	0.033591
654.3692	0.035443
655.0605	0.064681
655.7518	0.956721
656.4433	1.000000
657.1348	0.875730
657.8264	0.534120
658.5181	0.419808
659.2099	0.332785
659.9018	0.100215
660.5938	0.030835
661.2859	0.024678
661.9781	0.022558
662.6704	0.022793
663.3627	0.021164
664.0552	0.021566
664.7477	0.022220
665.4403	0.024076
666.1330	0.023508
666.8259	0.021086
667.5188	0.020719
668.2117	0.021703
668.9048	0.020718
669.5980	0.021014
670.2913	0.022196
670.9846	0.021921
671.6781	0.028002
672.3716	0.033640
673.0652	0.033344
673.7589	0.029776
674.4527	0.027833
675.1466	0.026018
675.8406	0.024793
676.5347	0.024181
677.2288	0.024793
677.9231	0.027263
678.6174	0.028467
679.3119	0.033344
680.0064	0.034336
680.7010	0.035202
681.3957	0.034949
682.0905	0.032098
682.7854	0.030874
683.4803	0.030663
684.1754	0.032415
684.8705	0.039256
685.5658	0.044851
686.2611	0.041726
686.9565	0.042149
687.6520	0.042001
688.3476	0.040924
689.0433	0.036089
689.7390	0.037039
690.4349	0.032943
691.1308	0.037947
691.8269	0.036279
692.5230	0.037081
693.2192	0.037018
693.9155	0.034252
694.6119	0.031296
695.3083	0.036300
696.0049	0.029966
696.7016	0.034801
697.3983	0.039298
698.0951	0.037229
698.7920	0.035857
699.4890	0.034484
700.1861	0.030620
700.8833	0.031739
701.5806	0.026693
702.2779	0.030979
702.9753	0.030578
703.6729	0.028615
704.3705	0.028087
705.0682	0.024877
705.7660	0.023843
706.4638	0.029712
707.1618	0.037208
707.8599	0.036976
708.5580	0.040016
709.2562	0.031380
709.9545	0.034780
710.6529	0.036279
711.3514	0.031761
712.0500	0.027453
712.7486	0.028551
713.4474	0.030937
714.1462	0.032732
714.8451	0.034716
715.5441	0.033555
716.2432	0.028403
716.9424	0.027686
717.6416	0.026039
718.3410	0.029670
719.0404	0.029860
719.7399	0.029037
720.4395	0.027137
721.1392	0.028657
721.8390	0.029818
722.5388	0.028636
723.2388	0.028488
723.9388	0.028256
724.6389	0.025701
725.3391	0.032626
726.0394	0.032901
726.7398	0.034569
727.4403	0.032204
728.1408	0.032647
728.8414	0.036384
729.5421	0.038052
730.2429	0.035118
730.9438	0.042761
731.6448	0.044661
732.3458	0.038981
733.0470	0.042655
733.7482	0.045252
734.4495	0.053740
735.1509	0.049897
735.8524	0.046625
736.5539	0.048039
737.2556	0.050256
737.9573	0.044556
738.6591	0.042550
739.3610	0.045675
740.0630	0.043394
740.7651	0.037862
741.4672	0.035561
742.1695	0.036194
742.8718	0.035434
743.5742	0.031296
744.2767	0.028446
744.9792	0.029058
745.6819	0.027200
746.3846	0.029480
747.0874	0.029586
747.7903	0.029712
748.4933	0.028467
749.1964	0.030853
749.8995	0.037482
750.6028	0.039129
751.3061	0.039171
752.0095	0.038285
752.7130	0.036047
753.4166	0.039129
754.1202	0.042740
754.8239	0.039805
755.5278	0.043014
756.2317	0.045295
756.9356	0.050003
757.6397	0.058068
758.3438	0.055302
759.0481	0.055007
759.7524	0.061763
760.4568	0.062502
761.1613	0.061911
761.8658	0.051903
762.5705	0.048335
763.2752	0.049517
763.9800	0.050489
764.6849	0.058406
765.3898	0.057541
766.0949	0.050552
766.8000	0.042043
767.5052	0.040122
768.2105	0.046076
768.9159	0.048060
769.6214	0.046604
770.3269	0.042550
771.0325	0.048356
771.7382	0.045189
772.4440	0.040692
773.1499	0.039425
773.8558	0.037567
774.5618	0.032542
775.2679	0.031634
775.9741	0.025996
776.6804	0.025173
777.3868	0.024096
778.0932	0.026039
778.7997	0.029037
779.5063	0.030578
780.2130	0.029522
780.9197	0.029522
781.6265	0.034062
782.3335	0.034548
783.0405	0.035498
783.7475	0.035582
784.4547	0.030029
785.1619	0.030937
785.8692	0.028235
786.5766	0.027052
787.2841	0.027073
787.9917	0.031317
788.6993	0.030853
789.4070	0.029924
790.1148	0.026018
790.8227	0.024033
791.5306	0.024518
792.2387	0.021774
792.9468	0.021710
793.6550	0.024624
794.3632	0.028636
795.0716	0.031634
795.7800	0.029396
796.4885	0.023209
797.1971	0.021140
797.9058	0.024708
798.6145	0.023019
799.3233	0.022766
800.0322	0.020655
800.7412	0.018374
801.4503	0.020929
802.1594	0.017234
802.8686	0.016537
803.5779	0.018205
804.2873	0.016770
804.9968	0.016854
805.7063	0.017276
806.4159	0.023357
807.1256	0.024075
807.8354	0.022703
808.5452	0.021225
809.2551	0.021499
809.9651	0.020401
810.6752	0.018417
811.3853	0.016854
812.0956	0.017466
812.8059	0.014215
813.5163	0.017340
814.2267	0.018776
814.9373	0.018670
815.6479	0.015461
816.3586	0.012209
817.0694	0.014954
817.7802	0.014574
818.4912	0.012927
819.2022	0.013962
819.9133	0.012885
820.6244	0.015608
821.3357	0.014806
822.0470	0.011829
822.7584	0.013223
823.4698	0.011365
824.1814	0.012779
824.8930	0.010351
825.6047	0.014088
826.3165	0.011913
827.0283	0.012843
827.7402	0.013898
828.4522	0.013054
829.1643	0.012526
829.8765	0.012336
830.5887	0.010520
831.3010	0.008387
832.0134	0.008662
832.7259	0.008873
833.4384	0.010351
834.1510	0.009485
834.8637	0.009823
835.5765	0.009823
836.2893	0.009063
837.0022	0.006403
837.7152	0.005347
838.4283	0.006698
839.1414	0.006192
839.8546	0.008092
840.5679	0.006994
841.2813	0.006867
841.9947	0.005537
842.7082	0.004925
843.4218	0.005094
844.1355	0.005073
844.8492	0.006318
845.5631	0.005136
846.2770	0.005516
846.9909	0.005242
847.7050	0.003574
848.4191	0.005727
849.1333	0.004355
849.8475	0.003785
850.5619	0.004355
851.2763	0.004587
851.9908	0.006318
852.7053	0.007754
853.4200	0.011428
854.1347	0.014616
854.8495	0.014447
855.5643	0.012695
856.2792	0.012272
856.9942	0.009929
857.7093	0.010077
858.4245	0.009359
859.1397	0.008409
859.8550	0.009359
860.5704	0.008662
861.2858	0.007290
862.0013	0.004714
862.7169	0.006593
863.4326	0.007437
864.1483	0.005516
864.8642	0.005263
865.5800	0.005833
866.2960	0.004186
867.0120	0.005579
867.7281	0.005157
868.4443	0.006297
869.1606	0.004777
869.8769	0.005220
870.5933	0.005558
871.3097	0.005896
872.0263	0.005664
872.7429	0.005579
873.4596	0.003890
874.1763	0.006086
874.8932	0.003869
875.6101	0.006952
876.3270	0.005284
877.0441	0.004671
877.7612	0.005727
878.4784	0.007501
879.1957	0.007986
879.9130	0.005854
880.6304	0.007353
881.3479	0.008007
882.0654	0.005917
882.7831	0.005199
883.5007	0.005812
884.2185	0.004819
884.9363	0.005812
885.6542	0.006192
886.3722	0.006529
887.0903	0.005347
887.8084	0.005790
888.5266	0.005305
889.2448	0.005579
889.9632	0.004861
890.6816	0.005537
891.4001	0.005157
892.1186	0.002560
892.8372	0.005305
893.5559	0.004481
894.2747	0.004313
894.9935	0.005579
895.7124	0.004777
896.4314	0.005432
897.1504	0.004334
897.8695	0.005368
898.5887	0.004249
899.3079	0.003996
900.0272	0.002581
900.7466	0.005917
901.4661	0.003890
902.1856	0.005516
902.9052	0.002792
903.6249	0.003890
904.3446	0.004798
905.0644	0.005516
905.7843	0.005220
906.5043	0.003151
907.2243	0.004629
907.9444	0.003257
908.6645	0.004122
909.3847	0.004270
910.1050	0.002856
910.8254	0.003383
911.5458	0.004946
912.2663	0.004017
912.9869	0.002053
913.7075	0.004334
914.4283	0.001863
915.1490	0.004165
915.8699	0.003510
916.5908	0.002750
917.3118	0.004017
918.0328	0.004165
918.7539	0.004376
919.4751	0.003447
920.1964	0.003489
920.9177	0.002940
921.6391	0.001906
922.3606	0.004017
923.0821	0.003025
923.8037	0.003658
924.5254	0.001716
925.2471	0.001103
925.9689	0.002539
926.6908	0.002518
927.4127	0.003257
928.1347	0.001335
928.8568	0.001758
929.5789	0.002961
930.3011	0.002666
931.0234	0.003700
931.7457	0.000596
932.4681	0.004587
933.1906	0.001504
933.9131	0.001589
934.6358	0.002919
935.3584	0.003489
936.0812	0.001335
936.8040	0.001230
937.5269	-0.000459
938.2498	0.001525
938.9728	0.001209
939.6959	0.001314
940.4190	0.001272
941.1422	0.000048
941.8655	0.001758
942.5889	0.000744
943.3123	0.001272
944.0357	0.000090
944.7593	0.002581
945.4829	0.000069
946.2066	0.000892
946.9303	0.001230
947.6541	0.000132
948.3780	0.000744
949.1019	0.002032
949.8259	0.001737
950.5500	0.001779
951.2741	-0.000164
951.9983	0.000913
952.7226	0.001040
953.4469	0.001990
954.1713	-0.000185
954.8958	0.001610
955.6203	0.000639
956.3449	0.000364
957.0696	0.001209
957.7943	0.000385
958.5191	0.001167
959.2439	0.001167
959.9688	0.000259
960.6938	-0.000501
961.4189	0.000618
962.1440	0.000132
962.8692	0.001082
963.5944	0.000554
964.3197	0.000216
965.0451	0.000449
965.7705	0.000723
966.4960	0.000892
967.2216	0.000406
967.9472	0.001167
968.6729	0.000406
969.3987	0.001884
970.1245	0.000259
970.8504	0.002053
971.5763	0.000301
972.3023	-0.000375
973.0284	0.000639
973.7545	0.000111
974.4807	0.001357
975.2070	0.001441
975.9333	-0.000248
976.6597	0.003341
977.3862	0.000470
978.1127	0.000618
978.8393	0.001504
979.5659	-0.000354
980.2926	0.000470
981.0194	0.000533
981.7462	0.001103
982.4731	0.000934
983.2001	0.000660
983.9271	0.000829
984.6542	0.000829
985.3814	0.001610
986.1086	0.000449
986.8358	0.000871
987.5632	0.001167
988.2906	0.000111
989.0180	-0.000058
989.7456	-0.000248
990.4732	-0.001029
991.2008	0.001378
991.9285	-0.000164
992.6563	0.001758
993.3841	-0.001473
994.1120	-0.000100
994.8400	0.000406
995.5680	0.000026
996.2961	-0.000438
997.0242	0.000660
997.7524	0.000385
998.4807	0.001019
999.2090	0.000005
999.9374	0.001927
1000.67	-0.000501
1001.39	0.000681
1002.12	-0.001325
1002.85	-0.000290
1003.58	0.000216
1004.31	0.001293
1005.04	-0.001029
1005.77	0.001272
1006.5	-0.000269
1007.22	-0.001114
1007.95	0.001061
1008.68	-0.000565
1009.41	0.000428
1010.14	-0.000143
1010.87	-0.000628
1011.6	-0.000375
1012.33	0.000343
1013.06	0.000786
1013.79	-0.000670
1014.52	0.000132
1015.25	0.000048
1015.98	-0.000016
1016.71	0.000533
1017.44	-0.002465
1018.17	0.002159
1018.9	-0.001853
1019.63	0.001948
1020.36	-0.000628
1021.09	0.001462
1021.82	0.000174
1022.55	0.000069
1023.03	-0.000776