File: Auto_Polymerization/Spectra/spectra_while_stopped/spectrum_2025-06-19_12-35-06.txt
# Wavelength (nm)	Intensity (a.u.)
197.7802	-0.000004
198.3922	-0.000785
199.0044	0.000820
199.6168	-0.000510
200.2292	-0.000447
200.8418	-0.000215
201.4546	0.000820
202.0674	0.000609
202.6805	-0.000025
203.2936	-0.000151
203.9069	0.000144
204.5203	0.000440
205.1338	-0.000595
205.7475	0.000081
206.3614	-0.000763
206.9753	0.000503
207.5894	0.000208
208.2036	0.000799
208.8180	0.000524
209.4325	0.001010
210.0471	0.001664
210.6618	0.000440
211.2767	0.000292
211.8918	0.000355
212.5069	0.000778
213.1222	0.000060
213.7376	0.000461
214.3532	0.000714
214.9689	-0.000489
215.5847	-0.000236
216.2007	0.000292
216.8168	0.000482
217.4330	0.000925
218.0494	0.001706
218.6659	0.001200
219.2825	-0.000426
219.8992	0.001073
220.5161	0.001031
221.1332	0.000398
221.7503	0.000081
222.3676	0.000376
222.9850	0.000503
223.6026	0.002403
224.2203	0.000904
224.8381	-0.001038
225.4561	-0.000848
226.0742	-0.000869
226.6924	0.000102
227.3107	0.000461
227.9292	0.000271
228.5478	0.001305
229.1666	0.001833
229.7855	0.000165
230.4045	0.001453
231.0236	0.000292
231.6429	0.001495
232.2623	0.000693
232.8818	-0.000785
233.5015	0.001200
234.1213	-0.000299
234.7413	0.000545
235.3613	-0.000637
235.9815	0.001179
236.6018	0.000271
237.2223	0.000060
237.8429	-0.001165
238.4636	-0.000088
239.0845	-0.000996
239.7055	0.001390
240.3266	0.000503
240.9478	0.001263
241.5692	0.000524
242.1907	0.001284
242.8124	0.000714
243.4341	0.000968
244.0560	-0.000468
244.6781	-0.000236
245.3002	-0.000194
245.9225	-0.000109
246.5449	0.000313
247.1675	0.000925
247.7902	-0.000215
248.4130	0.000904
249.0359	-0.000046
249.6590	0.000355
250.2822	-0.000109
250.9056	0.001432
251.5290	0.001749
252.1526	-0.000574
252.7763	-0.001270
253.4002	0.000208
254.0242	-0.000574
254.6483	-0.000046
255.2725	-0.000679
255.8969	0.000376
256.5214	-0.000257
257.1460	0.000292
257.7708	0.000862
258.3957	-0.000806
259.0207	0.000271
259.6459	0.000461
260.2711	-0.001122
260.8965	0.001664
261.5221	0.000630
262.1477	0.000292
262.7735	0.000693
263.3995	-0.000025
264.0255	-0.000067
264.6517	0.000461
265.2780	-0.000278
265.9044	-0.000257
266.5310	0.001390
267.1577	-0.000025
267.7845	-0.000911
268.4114	0.001263
269.0385	0.000461
269.6657	-0.000278
270.2931	-0.001038
270.9205	-0.000468
271.5481	-0.000004
272.1758	0.000545
272.8037	-0.001017
273.4316	0.001643
274.0597	0.000144
274.6880	0.001643
275.3163	-0.000088
275.9448	0.001158
276.5734	-0.000616
277.2022	-0.000151
277.8310	-0.000679
278.4600	0.001010
279.0891	-0.000067
279.7184	0.001179
280.3477	-0.000130
280.9772	0.001010
281.6069	0.000292
282.2366	-0.000025
282.8665	0.000419
283.4965	0.001073
284.1266	-0.000194
284.7569	0.000271
285.3873	-0.000848
286.0178	0.000292
286.6484	0.000123
287.2792	0.000419
287.9101	-0.000215
288.5411	0.000060
289.1723	-0.000595
289.8035	-0.001017
290.4349	0.002065
291.0665	0.001538
291.6981	0.000292
292.3299	0.001073
292.9618	0.001474
293.5938	0.001326
294.2260	0.000799
294.8582	0.000925
295.4906	-0.000742
296.1232	0.000419
296.7558	-0.000004
297.3886	-0.000552
298.0215	-0.001101
298.6545	0.000651
299.2877	-0.000236
299.9210	0.002023
300.5544	-0.001059
301.1879	-0.000953
301.8215	-0.000067
302.4553	-0.000341
303.0892	0.000313
303.7233	-0.000869
304.3574	0.000398
304.9917	0.001179
305.6261	0.000841
306.2606	-0.000426
306.8953	-0.001376
307.5301	0.001812
308.1650	-0.000447
308.8000	0.000820
309.4351	0.001390
310.0704	0.000778
310.7058	0.000250
311.3413	0.000229
311.9770	-0.001165
312.6127	0.001474
313.2486	-0.000046
313.8846	-0.000046
314.5208	-0.000278
315.1570	0.002023
315.7934	-0.000552
316.4299	0.000355
317.0666	0.000820
317.7033	0.000144
318.3402	0.000419
318.9772	-0.000278
319.6143	-0.000046
320.2516	0.000925
320.8890	0.000925
321.5265	0.000482
322.1641	0.000229
322.8018	0.000651
323.4397	0.001052
324.0777	0.000440
324.7158	0.000693
325.3540	0.000693
325.9924	-0.000299
326.6308	0.001495
327.2694	-0.000067
327.9082	0.000609
328.5470	0.000946
329.1860	0.000820
329.8251	0.001200
330.4643	0.000313
331.1036	0.000292
331.7431	0.000060
332.3826	-0.000299
333.0223	0.001664
333.6622	0.000123
334.3021	-0.000130
334.9422	0.000355
335.5823	0.001939
336.2227	0.000735
336.8631	0.002213
337.5036	0.000566
338.1443	0.001284
338.7851	-0.000215
339.4260	0.000355
340.0670	0.001158
340.7082	0.001559
341.3495	0.000018
341.9909	0.000482
342.6324	0.000419
343.2740	0.001031
343.9158	0.001390
344.5577	0.001073
345.1997	0.001263
345.8418	0.001158
346.4840	0.000714
347.1264	0.000545
347.7689	0.000588
348.4115	0.000186
349.0542	0.000376
349.6971	0.000208
350.3400	0.001073
350.9831	0.000799
351.6263	-0.000510
352.2696	0.002213
352.9131	0.000334
353.5566	0.000778
354.2003	-0.000489
354.8441	0.001706
355.4881	0.000524
356.1321	-0.000172
356.7763	0.000820
357.4206	0.001453
358.0650	-0.001291
358.7095	-0.000151
359.3541	0.001411
359.9989	0.000545
360.6438	0.001538
361.2888	0.001031
361.9339	0.000545
362.5791	0.001158
363.2245	0.000461
363.8699	-0.000320
364.5155	0.000714
365.1612	0.000693
365.8071	-0.000109
366.4530	0.000651
367.0991	-0.002220
367.7453	0.001094
368.3916	0.000756
369.0380	0.001348
369.6845	0.000524
370.3312	-0.000236
370.9780	0.000186
371.6249	0.001221
372.2719	0.000693
372.9190	-0.000236
373.5663	0.000208
374.2136	0.000482
374.8611	0.000756
375.5087	-0.000405
376.1564	0.000545
376.8043	0.001706
377.4522	0.001770
378.1003	0.000123
378.7485	0.001031
379.3968	0.000440
380.0452	0.000524
380.6938	0.000799
381.3424	0.000503
381.9912	-0.001270
382.6401	-0.000299
383.2891	0.001622
383.9382	-0.000911
384.5875	0.001685
385.2368	0.000820
385.8863	0.002382
386.5359	-0.000299
387.1856	0.001812
387.8355	0.000651
388.4854	0.002509
389.1355	0.002108
389.7856	0.002551
390.4359	0.000503
391.0863	0.001812
391.7369	0.000313
392.3875	0.000989
393.0383	0.002276
393.6891	0.002509
394.3401	0.002150
394.9912	0.003627
395.6425	0.001706
396.2938	0.002466
396.9453	0.002931
397.5968	0.004662
398.2485	0.003290
398.9003	0.003459
399.5522	0.004599
400.2043	0.004894
400.8564	0.003311
401.5087	0.005274
402.1610	0.004197
402.8135	0.005316
403.4661	0.005929
404.1189	0.006815
404.7717	0.006013
405.4246	0.006731
406.0777	0.008778
406.7309	0.008800
407.3842	0.008567
408.0376	0.007448
408.6911	0.010953
409.3448	0.009644
409.9985	0.009644
410.6524	0.008990
411.3064	0.010425
411.9605	0.009728
412.6147	0.011101
413.2690	0.010573
413.9234	0.011375
414.5780	0.012177
415.2326	0.013317
415.8874	0.010742
416.5423	0.013169
417.1973	0.012515
417.8524	0.011354
418.5077	0.012768
419.1630	0.014436
419.8185	0.013212
420.4741	0.016716
421.1298	0.017518
421.7856	0.016547
422.4415	0.018531
423.0975	0.018700
423.7536	0.017286
424.4099	0.017328
425.0663	0.017603
425.7228	0.018046
426.3793	0.017687
427.0361	0.017708
427.6929	0.017687
428.3498	0.019186
429.0068	0.018848
429.6640	0.023450
430.3213	0.022880
430.9787	0.022732
431.6362	0.020685
432.2938	0.017877
432.9515	0.018468
433.6093	0.021149
434.2673	0.023471
434.9253	0.021318
435.5835	0.020073
436.2418	0.021023
436.9001	0.021550
437.5586	0.019904
438.2173	0.018764
438.8760	0.024147
439.5348	0.021909
440.1938	0.022732
440.8528	0.022162
441.5120	0.026385
442.1713	0.024379
442.8307	0.025561
443.4902	0.024928
444.1498	0.024717
444.8095	0.025815
445.4694	0.024717
446.1293	0.024147
446.7894	0.023049
447.4496	0.022944
448.1098	0.023788
448.7702	0.021550
449.4307	0.020453
450.0914	0.021782
450.7521	0.020305
451.4129	0.019418
452.0739	0.019946
452.7349	0.019988
453.3961	0.019735
454.0574	0.019144
454.7188	0.017370
455.3803	0.018173
456.0419	0.018806
456.7036	0.019714
457.3654	0.017075
458.0274	0.017666
458.6894	0.019376
459.3516	0.016146
460.0138	0.017012
460.6762	0.016209
461.3387	0.017033
462.0013	0.014162
462.6640	0.014964
463.3268	0.013381
463.9897	0.015386
464.6528	0.015977
465.3159	0.015027
465.9792	0.015407
466.6425	0.012958
467.3060	0.013085
467.9696	0.012515
468.6333	0.011291
469.2970	0.010193
469.9610	0.010531
470.6250	0.010172
471.2891	0.009644
471.9533	0.007005
472.6177	0.010087
473.2821	0.009644
473.9467	0.008314
474.6113	0.007871
475.2761	0.009454
475.9410	0.009074
476.6060	0.008504
477.2711	0.007195
477.9363	0.007512
478.6016	0.007955
479.2670	0.006984
479.9325	0.005084
480.5982	0.007322
481.2639	0.006372
481.9298	0.007765
482.5957	0.007153
483.2618	0.006393
483.9280	0.006878
484.5943	0.007660
485.2606	0.006689
485.9271	0.018911
486.5937	0.012135
487.2605	0.009264
487.9273	0.006541
488.5942	0.005401
489.2612	0.005084
489.9284	0.003585
490.5956	0.004345
491.2630	0.005739
491.9304	0.004535
492.5980	0.003965
493.2657	0.003058
493.9334	0.003796
494.6013	0.002741
495.2693	0.005380
495.9374	0.003817
496.6056	0.005359
497.2739	0.002635
497.9423	0.005105
498.6109	0.004620
499.2795	0.004704
499.9482	0.004303
500.6171	0.003395
501.2860	0.004050
501.9551	0.002466
502.6242	0.003332
503.2935	0.004029
503.9628	0.003332
504.6323	0.003311
505.3019	0.002361
505.9716	0.003079
506.6414	0.001411
507.3113	0.003058
507.9813	0.003163
508.6514	0.002868
509.3216	0.004029
509.9919	0.004303
510.6623	0.003649
511.3329	0.003437
512.0035	0.003290
512.6742	0.001495
513.3451	0.002319
514.0160	0.003775
514.6871	0.002086
515.3582	0.002783
516.0295	0.001432
516.7008	0.004451
517.3723	0.002298
518.0439	0.004261
518.7155	0.003311
519.3873	0.003522
520.0592	0.003437
520.7312	0.001875
521.4033	0.004409
522.0755	0.002846
522.7478	0.003860
523.4202	0.004113
524.0927	0.004303
524.7653	0.003205
525.4380	0.004071
526.1108	0.003480
526.7837	0.004493
527.4568	0.003691
528.1299	0.005316
528.8031	0.005211
529.4765	0.006604
530.1499	0.004894
530.8234	0.004725
531.4971	0.005232
532.1708	0.005929
532.8447	0.007744
533.5186	0.007026
534.1927	0.009264
534.8668	0.006625
535.5411	0.007955
536.2155	0.008652
536.8899	0.006773
537.5645	0.008335
538.2392	0.009306
538.9139	0.009433
539.5888	0.009961
540.2638	0.010594
540.9389	0.009961
541.6140	0.012431
542.2893	0.011058
542.9647	0.012874
543.6402	0.010003
544.3158	0.014795
544.9915	0.014225
545.6673	0.015724
546.3432	0.013845
547.0192	0.014246
547.6953	0.018468
548.3715	0.019714
549.0478	0.019904
549.7242	0.017666
550.4007	0.018721
551.0773	0.018426
551.7540	0.018004
552.4308	0.021677
553.1077	0.021107
553.7847	0.022057
554.4618	0.021170
555.1390	0.022521
555.8163	0.024231
556.4937	0.028031
557.1712	0.022817
557.8488	0.025371
558.5266	0.024274
559.2044	0.025899
559.8823	0.026300
560.5603	0.030797
561.2384	0.031852
561.9166	0.033562
562.5949	0.030944
563.2733	0.031747
563.9519	0.034533
564.6305	0.036497
565.3092	0.037256
565.9880	0.039220
566.6669	0.040339
567.3459	0.048698
568.0250	0.053300
568.7043	0.062188
569.3836	0.073946
570.0630	0.096788
570.7425	0.100609
571.4221	0.118363
572.1018	0.126723
572.7816	0.115682
573.4615	0.132317
574.1415	0.154546
574.8216	0.165862
575.5018	0.165186
576.1821	0.150979
576.8626	0.172300
577.5431	0.187880
578.2237	0.229869
578.9044	0.194487
579.5851	0.193453
580.2660	0.202446
580.9470	0.199047
581.6281	0.299702
582.3093	0.290287
582.9906	0.229172
583.6720	0.189843
584.3535	0.188935
585.0351	0.215176
585.7167	0.226216
586.3985	0.196978
587.0804	0.206985
587.7624	0.218532
588.4445	0.196155
589.1266	0.170189
589.8089	0.157438
590.4913	0.147559
591.1737	0.129742
591.8563	0.126596
592.5389	0.151380
593.2217	0.198076
593.9046	0.187605
594.5875	0.167107
595.2705	0.191152
595.9537	0.166052
596.6369	0.142260
597.3203	0.145089
598.0037	0.143083
598.6872	0.152815
599.3709	0.180153
600.0546	0.177705
600.7384	0.177135
601.4223	0.183257
602.1064	0.162315
602.7905	0.167656
603.4747	0.182771
604.1590	0.171118
604.8434	0.152963
605.5279	0.160901
606.2125	0.170844
606.8972	0.153364
607.5819	0.159486
608.2668	0.150915
608.9518	0.140613
609.6369	0.131810
610.3220	0.151929
611.0073	0.135146
611.6927	0.137848
612.3781	0.129742
613.0637	0.126680
613.7493	0.126005
614.4351	0.124211
615.1209	0.124928
615.8068	0.125646
616.4929	0.111713
617.1790	0.106562
617.8652	0.109602
618.5515	0.102826
619.2379	0.090687
619.9244	0.093854
620.6110	0.095669
621.2977	0.074010
621.9845	0.081314
622.6714	0.081462
623.3584	0.086929
624.0454	0.082602
624.7326	0.091468
625.4199	0.084502
626.1072	0.078591
626.7947	0.070484
627.4822	0.070083
628.1698	0.066642
628.8576	0.055855
629.5454	0.062547
630.2333	0.059971
630.9213	0.055601
631.6094	0.051738
632.2976	0.052435
632.9859	0.045891
633.6743	0.043484
634.3628	0.044561
635.0514	0.038861
635.7400	0.043294
636.4288	0.046735
637.1177	0.044624
637.8066	0.040782
638.4957	0.041331
639.1848	0.038333
639.8740	0.038610
640.5633	0.034917
641.2528	0.037569
641.9423	0.032245
642.6319	0.029685
643.3216	0.030270
644.0113	0.028392
644.7012	0.026268
645.3912	0.026447
646.0812	0.026519
646.7714	0.024487
647.4616	0.023502
648.1520	0.030915
648.8424	0.031316
649.5329	0.033384
650.2236	0.029414
650.9143	0.030128
651.6051	0.028743
652.2960	0.030080
652.9870	0.032156
653.6780	0.031990
654.3692	0.035788
655.0605	0.069398
655.7518	0.940444
656.4433	1.000000
657.1348	0.858398
657.8264	0.521912
658.5181	0.407984
659.2099	0.335783
659.9018	0.103278
660.5938	0.031812
661.2859	0.023100
661.9781	0.022397
662.6704	0.022759
663.3627	0.020182
664.0552	0.020326
664.7477	0.023740
665.4403	0.025148
666.1330	0.024945
666.8259	0.022842
667.5188	0.022458
668.2117	0.023157
668.9048	0.022099
669.5980	0.021972
670.2913	0.022817
670.9846	0.020706
671.6781	0.029087
672.3716	0.034597
673.0652	0.033837
673.7589	0.029002
674.4527	0.027672
675.1466	0.026321
675.8406	0.027081
676.5347	0.023598
677.2288	0.025202
677.9231	0.028918
678.6174	0.028791
679.3119	0.032169
680.0064	0.035335
680.7010	0.035378
681.3957	0.033435
682.0905	0.034174
682.7854	0.032823
683.4803	0.031367
684.1754	0.032971
684.8705	0.039811
685.5658	0.044687
686.2611	0.046038
686.9565	0.043505
687.6520	0.045764
688.3476	0.037299
689.0433	0.037256
689.7390	0.036349
690.4349	0.034892
691.1308	0.037193
691.8269	0.038143
692.5230	0.038840
693.2192	0.039156
693.9155	0.038966
694.6119	0.033478
695.3083	0.036475
696.0049	0.032401
696.7016	0.036117
697.3983	0.039220
698.0951	0.038502
698.7920	0.038164
699.4890	0.035568
700.1861	0.033457
700.8833	0.029678
701.5806	0.031662
702.2779	0.031198
702.9753	0.028517
703.6729	0.028686
704.3705	0.028221
705.0682	0.025688
705.7660	0.025287
706.4638	0.029804
707.1618	0.037362
707.8599	0.036961
708.5580	0.036138
709.2562	0.034238
709.9545	0.035673
710.6529	0.034723
711.3514	0.033140
712.0500	0.027905
712.7486	0.030501
713.4474	0.033963
714.1462	0.033942
714.8451	0.036074
715.5441	0.035441
716.2432	0.031029
716.9424	0.029171
717.6416	0.026216
718.3410	0.029572
719.0404	0.028116
719.7399	0.028031
720.4395	0.028242
721.1392	0.031008
721.8390	0.028939
722.5388	0.029488
723.2388	0.024844
723.9388	0.028749
724.6389	0.024252
725.3391	0.032844
726.0394	0.033414
726.7398	0.035230
727.4403	0.032042
728.1408	0.032908
728.8414	0.034977
729.5421	0.037066
730.2429	0.037362
730.9438	0.042281
731.6448	0.044772
732.3458	0.041584
733.0470	0.042745
733.7482	0.047052
734.4495	0.055137
735.1509	0.047959
735.8524	0.049163
736.5539	0.049944
737.2556	0.051949
737.9573	0.043379
738.6591	0.040887
739.3610	0.046271
740.0630	0.046186
740.7651	0.040951
741.4672	0.036095
742.1695	0.032844
742.8718	0.037214
743.5742	0.031810
744.2767	0.029910
744.9792	0.029657
745.6819	0.030016
746.3846	0.026891
747.0874	0.030163
747.7903	0.029931
748.4933	0.030586
749.1964	0.031071
749.8995	0.037911
750.6028	0.041289
751.3061	0.039705
752.0095	0.038819
752.7130	0.038882
753.4166	0.038101
754.1202	0.041436
754.8239	0.041204
755.5278	0.041647
756.2317	0.046271
756.9356	0.050324
757.6397	0.058029
758.3438	0.057269
759.0481	0.055411
759.7524	0.059845
760.4568	0.063560
761.1613	0.062251
761.8658	0.053469
762.5705	0.048086
763.2752	0.050662
763.9800	0.050028
764.6849	0.059887
765.3898	0.057713
766.0949	0.051253
766.8000	0.041415
767.5052	0.038312
768.2105	0.042365
768.9159	0.050324
769.6214	0.048762
770.3269	0.046123
771.0325	0.047073
771.7382	0.045405
772.4440	0.042006
773.1499	0.040909
773.8558	0.037468
774.5618	0.031536
775.2679	0.029994
775.9741	0.025688
776.6804	0.026997
777.3868	0.025224
778.0932	0.025055
778.7997	0.028833
779.5063	0.033499
780.2130	0.028390
780.9197	0.030480
781.6265	0.034407
782.3335	0.036518
783.0405	0.034069
783.7475	0.035167
784.4547	0.029910
785.1619	0.029889
785.8692	0.029256
786.5766	0.027229
787.2841	0.030058
787.9917	0.030100
788.6993	0.031156
789.4070	0.030522
790.1148	0.026469
790.8227	0.026997
791.5306	0.025561
792.2387	0.023408
792.9468	0.021044
793.6550	0.022986
794.3632	0.033245
795.0716	0.031789
795.7800	0.028496
796.4885	0.022901
797.1971	0.023007
797.9058	0.022901
798.6145	0.022627
799.3233	0.024506
800.0322	0.022247
800.7412	0.019376
801.4503	0.019840
802.1594	0.017856
802.8686	0.016906
803.5779	0.018426
804.2873	0.018109
804.9968	0.017687
805.7063	0.018700
806.4159	0.024801
807.1256	0.023619
807.8354	0.023176
808.5452	0.024337
809.2551	0.021445
809.9651	0.020009
810.6752	0.018954
811.3853	0.021086
812.0956	0.016610
812.8059	0.015724
813.5163	0.014964
814.2267	0.019861
814.9373	0.017919
815.6479	0.013929
816.3586	0.013718
817.0694	0.013254
817.7802	0.014394
818.4912	0.013866
819.2022	0.012874
819.9133	0.013043
820.6244	0.015893
821.3357	0.016230
822.0470	0.013212
822.7584	0.014162
823.4698	0.013233
824.1814	0.010214
824.8930	0.011396
825.6047	0.014225
826.3165	0.012008
827.0283	0.013507
827.7402	0.014056
828.4522	0.013824
829.1643	0.012515
829.8765	0.012853
830.5887	0.010784
831.3010	0.009327
832.0134	0.007512
832.7259	0.009940
833.4384	0.008251
834.1510	0.011016
834.8637	0.010911
835.5765	0.009834
836.2893	0.009095
837.0022	0.007744
837.7152	0.008145
838.4283	0.007385
839.1414	0.006372
839.8546	0.007913
840.5679	0.006287
841.2813	0.008061
841.9947	0.006921
842.7082	0.005781
843.4218	0.004324
844.1355	0.006625
844.8492	0.004345
845.5631	0.006942
846.2770	0.006140
846.9909	0.004620
847.7050	0.004387
848.4191	0.004767
849.1333	0.004683
849.8475	0.004873
850.5619	0.004387
851.2763	0.004197
851.9908	0.005147
852.7053	0.008293
853.4200	0.013718
854.1347	0.011839
854.8495	0.014943
855.5643	0.014753
856.2792	0.012937
856.9942	0.012515
857.7093	0.010742
858.4245	0.011122
859.1397	0.007681
859.8550	0.010699
860.5704	0.008863
861.2858	0.006435
862.0013	0.007448
862.7169	0.006520
863.4326	0.007111
864.1483	0.008800
864.8642	0.004662
865.5800	0.006161
866.2960	0.005105
867.0120	0.006351
867.7281	0.003965
868.4443	0.007533
869.1606	0.005739
869.8769	0.004577
870.5933	0.004261
871.3097	0.005042
872.0263	0.004662
872.7429	0.004324
873.4596	0.004409
874.1763	0.005865
874.8932	0.005126
875.6101	0.005211
876.3270	0.005169
877.0441	0.005675
877.7612	0.006287
878.4784	0.006034
879.1957	0.006330
879.9130	0.008757
880.6304	0.007786
881.3479	0.006330
882.0654	0.006266
882.7831	0.007237
883.5007	0.005717
884.2185	0.004894
884.9363	0.006097
885.6542	0.007322
886.3722	0.006815
887.0903	0.007280
887.8084	0.005422
888.5266	0.005696
889.2448	0.006287
889.9632	0.002952
890.6816	0.006499
891.4001	0.004789
892.1186	0.005485
892.8372	0.005654
893.5559	0.007068
894.2747	0.005886
894.9935	0.003606
895.7124	0.004704
896.4314	0.005337
897.1504	0.003839
897.8695	0.006097
898.5887	0.004451
899.3079	0.006013
900.0272	0.004979
900.7466	0.005675
901.4661	0.003627
902.1856	0.006182
902.9052	0.004767
903.6249	0.003036
904.3446	0.004704
905.0644	0.005021
905.7843	0.004704
906.5043	0.005316
907.2243	0.004915
907.9444	0.004071
908.6645	0.005190
909.3847	0.003184
910.1050	0.003944
910.8254	0.004451
911.5458	0.004683
912.2663	0.004641
912.9869	0.004894
913.7075	0.002783
914.4283	0.002361
915.1490	0.003860
915.8699	0.004029
916.5908	0.002910
917.3118	0.003269
918.0328	0.003944
918.7539	0.004113
919.4751	0.004155
920.1964	0.004620
920.9177	0.003627
921.6391	0.003058
922.3606	0.002952
923.0821	0.002551
923.8037	0.004092
924.5254	0.003226
925.2471	0.004197
925.9689	0.002699
926.6908	0.003691
927.4127	0.001854
928.1347	0.003142
928.8568	0.002741
929.5789	0.002846
930.3011	0.000714
931.0234	0.003649
931.7457	0.002572
932.4681	0.002868
933.1906	0.002002
933.9131	0.004240
934.6358	0.002910
935.3584	0.002530
936.0812	0.001242
936.8040	0.001580
937.5269	0.002213
938.2498	0.000841
938.9728	0.000081
939.6959	0.002065
940.4190	0.002889
941.1422	0.002298
941.8655	0.000503
942.5889	0.001179
943.3123	0.000946
944.0357	0.001031
944.7593	0.001812
945.4829	0.000693
946.2066	0.000862
946.9303	0.001326
947.6541	0.001516
948.3780	0.001200
949.1019	0.001326
949.8259	0.000334
950.5500	0.000186
951.2741	0.000250
951.9983	0.002150
952.7226	0.001981
953.4469	0.001896
954.1713	0.000925
954.8958	0.002065
955.6203	0.001875
956.3449	0.000968
957.0696	0.001495
957.7943	0.001939
958.5191	-0.000088
959.2439	0.000925
959.9688	0.002108
960.6938	0.001791
961.4189	0.001136
962.1440	-0.000552
962.8692	0.001369
963.5944	0.002846
964.3197	0.000714
965.0451	0.000778
965.7705	0.002530
966.4960	0.002825
967.2216	0.000714
967.9472	0.000989
968.6729	0.001200
969.3987	0.001348
970.1245	0.001115
970.8504	0.002635
971.5763	0.001094
972.3023	0.002192
973.0284	0.000018
973.7545	0.001115
974.4807	0.000799
975.2070	0.002192
975.9333	0.002741
976.6597	0.000524
977.3862	0.000376
978.1127	0.000799
978.8393	0.000778
979.5659	0.001643
980.2926	-0.000489
981.0194	0.000904
981.7462	0.000672
982.4731	0.000334
983.2001	-0.000172
983.9271	0.000968
984.6542	0.000672
985.3814	0.000630
986.1086	0.000714
986.8358	0.001115
987.5632	0.000398
988.2906	-0.000531
989.0180	0.000503
989.7456	0.001200
990.4732	0.000060
991.2008	0.000735
991.9285	-0.000700
992.6563	-0.000257
993.3841	0.000651
994.1120	0.000313
994.8400	0.001622
995.5680	0.002445
996.2961	0.000651
997.0242	0.000609
997.7524	-0.000341
998.4807	0.001664
999.2090	0.000165
999.9374	-0.001186
1000.67	0.000693
1001.39	0.000440
1002.12	0.000482
1002.85	0.001115
1003.58	0.000186
1004.31	-0.000236
1005.04	-0.000257
1005.77	-0.000067
1006.5	0.000862
1007.22	-0.000489
1007.95	-0.000151
1008.68	0.000144
1009.41	0.000440
1010.14	0.001770
1010.87	-0.000637
1011.6	0.001094
1012.33	0.000060
1013.06	0.001390
1013.79	0.000756
1014.52	0.000883
1015.25	-0.000320
1015.98	0.000018
1016.71	0.000186
1017.44	0.002213
1018.17	0.000208
1018.9	-0.000320
1019.63	0.000735
1020.36	0.000862
1021.09	-0.000763
1021.82	0.000102
1022.55	-0.000468
1023.03	0.000756