File: Auto_Polymerization/Spectra/DMSO+CTA_spectrum_2025-06-19_14-58-38.txt
# Wavelength (nm)	Intensity (a.u.)
197.7802	0.000294
198.3922	0.000969
199.0044	0.001053
199.6168	-0.000656
200.2292	0.000357
200.8418	0.000505
201.4546	-0.000128
202.0674	-0.000571
202.6805	-0.000044
203.2936	0.000040
203.9069	0.000188
204.5203	0.000125
205.1338	0.000568
205.7475	0.000146
206.3614	0.000716
206.9753	-0.000276
207.5894	-0.000171
208.2036	-0.000192
208.8180	-0.000550
209.4325	0.000505
210.0471	0.001496
210.6618	-0.001563
211.2767	-0.001078
211.8918	0.000399
212.5069	0.000209
213.1222	-0.000571
213.7376	0.000484
214.3532	0.000399
214.9689	-0.000382
215.5847	-0.000318
216.2007	0.000167
216.8168	-0.001458
217.4330	0.001053
218.0494	0.000420
218.6659	0.000399
219.2825	0.000884
219.8992	0.001349
220.5161	0.001475
221.1332	0.001539
221.7503	-0.000677
222.3676	-0.000550
222.9850	0.000568
223.6026	0.000399
224.2203	0.000146
224.8381	0.000737
225.4561	0.000251
226.0742	0.001159
226.6924	-0.000192
227.3107	-0.000339
227.9292	0.000019
228.5478	0.001328
229.1666	0.000083
229.7855	0.001602
230.4045	-0.000614
231.0236	0.000737
231.6429	-0.000065
232.2623	0.000251
232.8818	0.000040
233.5015	0.000505
234.1213	-0.000635
234.7413	-0.000149
235.3613	-0.000445
235.9815	0.000737
236.6018	-0.000107
237.2223	0.000462
237.8429	0.000441
238.4636	0.001349
239.0845	0.000230
239.7055	-0.000382
240.3266	-0.001605
240.9478	-0.000065
241.5692	0.002362
242.1907	0.000125
242.8124	-0.000382
243.4341	-0.000234
244.0560	0.001011
244.6781	-0.000023
245.3002	0.000568
245.9225	0.000378
246.5449	0.000652
247.1675	0.002151
247.7902	-0.000107
248.4130	0.000631
249.0359	0.000631
249.6590	0.000990
250.2822	0.001496
250.9056	0.000251
251.5290	-0.000508
252.1526	0.000378
252.7763	0.000294
253.4002	0.001391
254.0242	0.001518
254.6483	0.000188
255.2725	0.001117
255.8969	0.000505
256.5214	-0.000192
257.1460	0.000378
257.7708	-0.000550
258.3957	0.000441
259.0207	-0.000149
259.6459	0.000484
260.2711	-0.001205
260.8965	0.000779
261.5221	0.000547
262.1477	0.000125
262.7735	-0.000740
263.3995	0.000589
264.0255	0.000695
264.6517	-0.000466
265.2780	0.000315
265.9044	0.000758
266.5310	0.001243
267.1577	0.001518
267.7845	-0.000529
268.4114	-0.000382
269.0385	0.000821
269.6657	0.000357
270.2931	0.000019
270.9205	-0.000614
271.5481	0.000484
272.1758	0.001391
272.8037	0.000273
273.4316	0.001032
274.0597	0.000800
274.6880	0.000125
275.3163	0.000568
275.9448	0.000884
276.5734	0.000589
277.2022	0.001328
277.8310	-0.000761
278.4600	0.000230
279.0891	0.001623
279.7184	0.002193
280.3477	0.000547
280.9772	0.000019
281.6069	-0.000255
282.2366	0.000547
282.8665	0.000251
283.4965	0.002805
284.1266	0.000695
284.7569	0.000568
285.3873	0.000062
286.0178	0.001370
286.6484	0.000083
287.2792	0.001074
287.9101	0.000251
288.5411	-0.000403
289.1723	-0.000065
289.8035	0.001307
290.4349	0.000399
291.0665	0.000167
291.6981	0.000673
292.3299	0.000948
292.9618	-0.000466
293.5938	0.000505
294.2260	0.000294
294.8582	0.000188
295.4906	-0.000297
296.1232	0.001433
296.7558	-0.000086
297.3886	-0.000529
298.0215	0.000230
298.6545	0.000695
299.2877	0.001475
299.9210	0.000209
300.5544	-0.000107
301.1879	0.001665
301.8215	0.000779
302.4553	-0.000171
303.0892	0.000441
303.7233	0.000631
304.3574	-0.000719
304.9917	0.001539
305.6261	0.001307
306.2606	0.000990
306.8953	0.001095
307.5301	0.000948
308.1650	-0.000846
308.8000	0.000821
309.4351	0.000357
310.0704	0.002066
310.7058	0.001180
311.3413	-0.000424
311.9770	-0.000909
312.6127	0.001285
313.2486	-0.000023
313.8846	-0.000466
314.5208	0.000631
315.1570	0.001391
315.7934	0.001750
316.4299	0.002024
317.0666	0.001138
317.7033	0.001264
318.3402	-0.001247
318.9772	0.001138
319.6143	0.000969
320.2516	-0.000002
320.8890	0.000969
321.5265	0.001053
322.1641	0.000378
322.8018	0.001328
323.4397	0.000737
324.0777	0.001307
324.7158	-0.000192
325.3540	0.000251
325.9924	0.000673
326.6308	-0.000318
327.2694	-0.000149
327.9082	0.000146
328.5470	0.000083
329.1860	0.000230
329.8251	0.000716
330.4643	0.000040
331.1036	-0.001036
331.7431	0.002108
332.3826	0.000104
333.0223	0.001644
333.6622	0.000589
334.3021	0.001602
334.9422	0.000737
335.5823	0.001264
336.2227	-0.000888
336.8631	-0.000698
337.5036	0.000863
338.1443	0.001328
338.7851	-0.000086
339.4260	0.000505
340.0670	0.001264
340.7082	0.002235
341.3495	0.000040
341.9909	0.000842
342.6324	0.000251
343.2740	0.002045
343.9158	0.000906
344.5577	0.000336
345.1997	0.000673
345.8418	-0.000719
346.4840	-0.000339
347.1264	0.000969
347.7689	-0.000318
348.4115	0.000040
349.0542	0.001011
349.6971	0.002087
350.3400	0.001454
350.9831	0.000526
351.6263	0.000336
352.2696	0.001665
352.9131	0.000462
353.5566	0.000737
354.2003	0.001581
354.8441	0.001032
355.4881	-0.000635
356.1321	0.000399
356.7763	-0.000635
357.4206	-0.000382
358.0650	-0.001120
358.7095	0.001750
359.3541	-0.000023
359.9989	0.001011
360.6438	0.001243
361.2888	0.000378
361.9339	0.000146
362.5791	0.000526
363.2245	0.000209
363.8699	-0.000044
364.5155	-0.000297
365.1612	-0.000445
365.8071	0.002172
366.4530	0.000062
367.0991	0.000420
367.7453	0.001138
368.3916	0.000188
369.0380	0.000484
369.6845	-0.000297
370.3312	0.000357
370.9780	0.000906
371.6249	0.001391
372.2719	0.000125
372.9190	0.002151
373.5663	0.000273
374.2136	0.002425
374.8611	0.001412
375.5087	0.002045
376.1564	0.002129
376.8043	0.003585
377.4522	0.002129
378.1003	0.003944
378.7485	0.002488
379.3968	0.004303
380.0452	0.004197
380.6938	0.005569
381.3424	0.006075
381.9912	0.007299
382.6401	0.009072
383.2891	0.009072
383.9382	0.011984
384.5875	0.009557
385.2368	0.012026
385.8863	0.011625
386.5359	0.010274
387.1856	0.013967
387.8355	0.016204
388.4854	0.016753
389.1355	0.016373
389.7856	0.017259
390.4359	0.016731
391.0863	0.019432
391.7369	0.019053
392.3875	0.020466
393.0383	0.022830
393.6891	0.022534
394.3401	0.023420
394.9912	0.025214
395.6425	0.022661
396.2938	0.026459
396.9453	0.024539
397.5968	0.027366
398.2485	0.030700
398.9003	0.030342
399.5522	0.029033
400.2043	0.030194
400.8564	0.029392
401.5087	0.028485
402.1610	0.029941
402.8135	0.028822
403.4661	0.029624
404.1189	0.032853
404.7717	0.031249
405.4246	0.032832
406.0777	0.032262
406.7309	0.029265
407.3842	0.031587
408.0376	0.030679
408.6911	0.033676
409.3448	0.034435
409.9985	0.033401
410.6524	0.032199
411.3064	0.033021
411.9605	0.033296
412.6147	0.032621
413.2690	0.033422
413.9234	0.033802
414.5780	0.032410
415.2326	0.034520
415.8874	0.033950
416.5423	0.034899
417.1973	0.034604
417.8524	0.034836
418.5077	0.033169
419.1630	0.034836
419.8185	0.033865
420.4741	0.037495
421.1298	0.036883
421.7856	0.043066
422.4415	0.042011
423.0975	0.041989
423.7536	0.040386
424.4099	0.037136
425.0663	0.038276
425.7228	0.037073
426.3793	0.034477
427.0361	0.033254
427.6929	0.039732
428.3498	0.038698
429.0068	0.037221
429.6640	0.036714
430.3213	0.044311
430.9787	0.042791
431.6362	0.040702
432.2938	0.035828
432.9515	0.037748
433.6093	0.037917
434.2673	0.044374
434.9253	0.040301
435.5835	0.041145
436.2418	0.038888
436.9001	0.041800
437.5586	0.038529
438.2173	0.039542
438.8760	0.042559
439.5348	0.041968
440.1938	0.040808
440.8528	0.040301
441.5120	0.045682
442.1713	0.048911
442.8307	0.046146
443.4902	0.048172
444.1498	0.047898
444.8095	0.045745
445.4694	0.044289
446.1293	0.043382
446.7894	0.046822
447.4496	0.044564
448.1098	0.043277
448.7702	0.042791
449.4307	0.043382
450.0914	0.042538
450.7521	0.042918
451.4129	0.041230
452.0739	0.040196
452.7349	0.038360
453.3961	0.040196
454.0574	0.037790
454.7188	0.037664
455.3803	0.037854
456.0419	0.038824
456.7036	0.039267
457.3654	0.036440
458.0274	0.039457
458.6894	0.039035
459.3516	0.038866
460.0138	0.038107
460.6762	0.038276
461.3387	0.037643
462.0013	0.037178
462.6640	0.031059
463.3268	0.031755
463.9897	0.034815
464.6528	0.036123
465.3159	0.038655
465.9792	0.037896
466.6425	0.034435
467.3060	0.031671
467.9696	0.029772
468.6333	0.031017
469.2970	0.029054
469.9610	0.026860
470.6250	0.025256
471.2891	0.026269
471.9533	0.025910
472.6177	0.026121
473.2821	0.027598
473.9467	0.027641
474.6113	0.027134
475.2761	0.028020
475.9410	0.028569
476.6060	0.025953
477.2711	0.024982
477.9363	0.023885
478.6016	0.027261
479.2670	0.024771
479.9325	0.027282
480.5982	0.027240
481.2639	0.023505
481.9298	0.025172
482.5957	0.025594
483.2618	0.025172
483.9280	0.024539
484.5943	0.026079
485.2606	0.027999
485.9271	0.060980
486.5937	0.072670
487.2605	0.047265
487.9273	0.032431
488.5942	0.023737
489.2612	0.022408
489.9284	0.020909
490.5956	0.022408
491.2630	0.020973
491.9304	0.020656
492.5980	0.021606
493.2657	0.020086
493.9334	0.021606
494.6013	0.021331
495.2693	0.017533
495.9374	0.018504
496.6056	0.020213
497.2739	0.020086
497.9423	0.019242
498.6109	0.017533
499.2795	0.016626
499.9482	0.019369
500.6171	0.017660
501.2860	0.017765
501.9551	0.018968
502.6242	0.017808
503.2935	0.018272
503.9628	0.016330
504.6323	0.016436
505.3019	0.016394
505.9716	0.014853
506.6414	0.015360
507.3113	0.016415
507.9813	0.014959
508.6514	0.015001
509.3216	0.015444
509.9919	0.014853
510.6623	0.015887
511.3329	0.013334
512.0035	0.014727
512.6742	0.014326
513.3451	0.015149
514.0160	0.012363
514.6871	0.013587
515.3582	0.011899
516.0295	0.013883
516.7008	0.013419
517.3723	0.012469
518.0439	0.013060
518.7155	0.012743
519.3873	0.011266
520.0592	0.013144
520.7312	0.012448
521.4033	0.013271
522.0755	0.012068
522.7478	0.010401
523.4202	0.011878
524.0927	0.013144
524.7653	0.012975
525.4380	0.012448
526.1108	0.012385
526.7837	0.013060
527.4568	0.014790
528.1299	0.012279
528.8031	0.014241
529.4765	0.014241
530.1499	0.013482
530.8234	0.013102
531.4971	0.015803
532.1708	0.014284
532.8447	0.015360
533.5186	0.015360
534.1927	0.018230
534.8668	0.018251
535.5411	0.017153
536.2155	0.018736
536.8899	0.018251
537.5645	0.016816
538.2392	0.018905
538.9139	0.019432
539.5888	0.021838
540.2638	0.020909
540.9389	0.022007
541.6140	0.021796
542.2893	0.023041
542.9647	0.023864
543.6402	0.025277
544.3158	0.023653
544.9915	0.026269
545.6673	0.027219
546.3432	0.024518
547.0192	0.023167
547.6953	0.026016
548.3715	0.031481
549.0478	0.030131
549.7242	0.026754
550.4007	0.030700
551.0773	0.026691
551.7540	0.026902
552.4308	0.030595
553.1077	0.032452
553.7847	0.032684
554.4618	0.033401
555.1390	0.030426
555.8163	0.035195
556.4937	0.035511
557.1712	0.034541
557.8488	0.034309
558.5266	0.036039
559.2044	0.032789
559.8823	0.034857
560.5603	0.041103
561.2384	0.043171
561.9166	0.044627
562.5949	0.043382
563.2733	0.042327
563.9519	0.043952
564.6305	0.048362
565.3092	0.047856
565.9880	0.048320
566.6669	0.048805
567.3459	0.056190
568.0250	0.066361
568.7043	0.070581
569.3836	0.083896
570.0630	0.110948
570.7425	0.117405
571.4221	0.136543
572.1018	0.150280
572.7816	0.143000
573.4615	0.136543
574.1415	0.169271
574.8216	0.188980
575.5018	0.194360
576.1821	0.177100
576.8626	0.188663
577.5431	0.203687
578.2237	0.270388
578.9044	0.232933
579.5851	0.209363
580.2660	0.227742
580.9470	0.214786
581.6281	0.310564
582.3093	0.338460
582.9906	0.274207
583.6720	0.218521
584.3535	0.198792
585.0351	0.220695
585.7167	0.249012
586.3985	0.222340
587.0804	0.210840
587.7624	0.237597
588.4445	0.212634
589.1266	0.195162
589.8089	0.168237
590.4913	0.163532
591.1737	0.139898
591.8563	0.133315
592.5389	0.135847
593.2217	0.203645
593.9046	0.207654
594.5875	0.174420
595.2705	0.201493
595.9537	0.185224
596.6369	0.152517
597.3203	0.148845
598.0037	0.150006
598.6872	0.137113
599.3709	0.191617
600.0546	0.179927
600.7384	0.184928
601.4223	0.189275
602.1064	0.172057
602.7905	0.167013
603.4747	0.182628
604.1590	0.185688
604.8434	0.163384
605.5279	0.160683
606.2125	0.177796
606.8972	0.159206
607.5819	0.160620
608.2668	0.155049
608.9518	0.144710
609.6369	0.134623
610.3220	0.144857
611.0073	0.144456
611.6927	0.132724
612.3781	0.132070
613.0637	0.124874
613.7493	0.122891
614.4351	0.126942
615.1209	0.122701
615.8068	0.129707
616.4929	0.117278
617.1790	0.108753
617.8652	0.112129
618.5515	0.107529
619.2379	0.091007
619.9244	0.090353
620.6110	0.099574
621.2977	0.080541
621.9845	0.076806
622.6714	0.082693
623.3584	0.087631
624.0454	0.084698
624.7326	0.088581
625.4199	0.084972
626.1072	0.078283
626.7947	0.071404
627.4822	0.069273
628.1698	0.066868
628.8576	0.056423
629.5454	0.060221
630.2333	0.060136
630.9213	0.057077
631.6094	0.053300
632.2976	0.054059
632.9859	0.046252
633.6743	0.044226
634.3628	0.044142
635.0514	0.040301
635.7400	0.041947
636.4288	0.045366
637.1177	0.043530
637.8066	0.041504
638.4957	0.042095
639.1848	0.041631
639.8740	0.039657
640.5633	0.038434
641.2528	0.036413
641.9423	0.034989
642.6319	0.029231
643.3216	0.031208
644.0113	0.030312
644.7012	0.027731
645.3912	0.029885
646.0812	0.028381
646.7714	0.026166
647.4616	0.025623
648.1520	0.025504
648.8424	0.032829
649.5329	0.032686
650.2236	0.033652
650.9143	0.029585
651.6051	0.026403
652.2960	0.029963
652.9870	0.031142
653.6780	0.031120
654.3692	0.032641
655.0605	0.039044
655.7518	0.513993
656.4433	1.000000
657.1348	1.000000
657.8264	0.583509
658.5181	0.431815
659.2099	0.352159
659.9018	0.136934
660.5938	0.036373
661.2859	0.026432
661.9781	0.022029
662.6704	0.022156
663.3627	0.022325
664.0552	0.021165
664.7477	0.022430
665.4403	0.024576
666.1330	0.024222
666.8259	0.019551
667.5188	0.019435
668.2117	0.020385
668.9048	0.021289
669.5980	0.019031
670.2913	0.020276
670.9846	0.021353
671.6781	0.025531
672.3716	0.030426
673.0652	0.032093
673.7589	0.029054
674.4527	0.029413
675.1466	0.023547
675.8406	0.024433
676.5347	0.025699
677.2288	0.022513
677.9231	0.027198
678.6174	0.027620
679.3119	0.031376
680.0064	0.036250
680.7010	0.036588
681.3957	0.032557
682.0905	0.033781
682.7854	0.032747
683.4803	0.031291
684.1754	0.032515
684.8705	0.036883
685.5658	0.041842
686.2611	0.047159
686.9565	0.043319
687.6520	0.042686
688.3476	0.040892
689.0433	0.036060
689.7390	0.034731
690.4349	0.033781
691.1308	0.036503
691.8269	0.038444
692.5230	0.036524
693.2192	0.036060
693.9155	0.037326
694.6119	0.033676
695.3083	0.034224
696.0049	0.030764
696.7016	0.031376
697.3983	0.038951
698.0951	0.037917
698.7920	0.037347
699.4890	0.035575
700.1861	0.033676
700.8833	0.030721
701.5806	0.028400
702.2779	0.027113
702.9753	0.029730
703.6729	0.029835
704.3705	0.027071
705.0682	0.024159
705.7660	0.023779
706.4638	0.025531
707.1618	0.034752
707.8599	0.037706
708.5580	0.036144
709.2562	0.034140
709.9545	0.033570
710.6529	0.034140
711.3514	0.033211
712.0500	0.029265
712.7486	0.029877
713.4474	0.030869
714.1462	0.033633
714.8451	0.034667
715.5441	0.035026
716.2432	0.031819
716.9424	0.028168
717.6416	0.027430
718.3410	0.029033
719.0404	0.028443
719.7399	0.030510
720.4395	0.027978
721.1392	0.029772
721.8390	0.028274
722.5388	0.028717
723.2388	0.024307
723.9388	0.029076
724.6389	0.026923
725.3391	0.029666
726.0394	0.033591
726.7398	0.032768
727.4403	0.031565
728.1408	0.036081
728.8414	0.034414
729.5421	0.035680
730.2429	0.036377
730.9438	0.040154
731.6448	0.041145
732.3458	0.042348
733.0470	0.042855
733.7482	0.041462
734.4495	0.049417
735.1509	0.047982
735.8524	0.046716
736.5539	0.047750
737.2556	0.049607
737.9573	0.044311
738.6591	0.039310
739.3610	0.045344
740.0630	0.044817
740.7651	0.039563
741.4672	0.035300
742.1695	0.034688
742.8718	0.035406
743.5742	0.031270
744.2767	0.028696
744.9792	0.028843
745.6819	0.027662
746.3846	0.029793
747.0874	0.028400
747.7903	0.031671
748.4933	0.025974
749.1964	0.026818
749.8995	0.033507
750.6028	0.038740
751.3061	0.036355
752.0095	0.039225
752.7130	0.036904
753.4166	0.038001
754.1202	0.040850
754.8239	0.040301
755.5278	0.041947
756.2317	0.042243
756.9356	0.047370
757.6397	0.054080
758.3438	0.057098
759.0481	0.052772
759.7524	0.057731
760.4568	0.061930
761.1613	0.060495
761.8658	0.054713
762.5705	0.048678
763.2752	0.048721
763.9800	0.051991
764.6849	0.054819
765.3898	0.055663
766.0949	0.050367
766.8000	0.044437
767.5052	0.037685
768.2105	0.042728
768.9159	0.045176
769.6214	0.045155
770.3269	0.043066
771.0325	0.045218
771.7382	0.046547
772.4440	0.040660
773.1499	0.039689
773.8558	0.038845
774.5618	0.035638
775.2679	0.028886
775.9741	0.028548
776.6804	0.023378
777.3868	0.025256
778.0932	0.024412
778.7997	0.025826
779.5063	0.029687
780.2130	0.028485
780.9197	0.028696
781.6265	0.035089
782.3335	0.031966
783.0405	0.034899
783.7475	0.033338
784.4547	0.031798
785.1619	0.028485
785.8692	0.027999
786.5766	0.028780
787.2841	0.027008
787.9917	0.030743
788.6993	0.031987
789.4070	0.031608
790.1148	0.026100
790.8227	0.026248
791.5306	0.022766
792.2387	0.021964
792.9468	0.021226
793.6550	0.020171
794.3632	0.030236
795.0716	0.029287
795.7800	0.031840
796.4885	0.022935
797.1971	0.021331
797.9058	0.022197
798.6145	0.021732
799.3233	0.023779
800.0322	0.021015
800.7412	0.018103
801.4503	0.020973
802.1594	0.016795
802.8686	0.017301
803.5779	0.018272
804.2873	0.016668
804.9968	0.016415
805.7063	0.017744
806.4159	0.020952
807.1256	0.023695
807.8354	0.023146
808.5452	0.022302
809.2551	0.022619
809.9651	0.019854
810.6752	0.019791
811.3853	0.018314
812.0956	0.016141
812.8059	0.015550
813.5163	0.014136
814.2267	0.019833
814.9373	0.017470
815.6479	0.014410
816.3586	0.012110
817.0694	0.015740
817.7802	0.016816
818.4912	0.013102
819.2022	0.013482
819.9133	0.011287
820.6244	0.013883
821.3357	0.015592
822.0470	0.014326
822.7584	0.013123
823.4698	0.012216
824.1814	0.011541
824.8930	0.011688
825.6047	0.011287
826.3165	0.012342
827.0283	0.012448
827.7402	0.012659
828.4522	0.011541
829.1643	0.013018
829.8765	0.011330
830.5887	0.011076
831.3010	0.009641
832.0134	0.007974
832.7259	0.007130
833.4384	0.009916
834.1510	0.009072
834.8637	0.011308
835.5765	0.010274
836.2893	0.009367
837.0022	0.008671
837.7152	0.007996
838.4283	0.007616
839.1414	0.007341
839.8546	0.007447
840.5679	0.008396
841.2813	0.006476
841.9947	0.006708
842.7082	0.005400
843.4218	0.005759
844.1355	0.005358
844.8492	0.005759
845.5631	0.004851
846.2770	0.005949
846.9909	0.004535
847.7050	0.005717
848.4191	0.005358
849.1333	0.004746
849.8475	0.005759
850.5619	0.005252
851.2763	0.005274
851.9908	0.006202
852.7053	0.006392
853.4200	0.012406
854.1347	0.012448
854.8495	0.014326
855.5643	0.013545
856.2792	0.012701
856.9942	0.011393
857.7093	0.010296
858.4245	0.009979
859.1397	0.010169
859.8550	0.008671
860.5704	0.005400
861.2858	0.005337
862.0013	0.006476
862.7169	0.006096
863.4326	0.005379
864.1483	0.007320
864.8642	0.004936
865.5800	0.005843
866.2960	0.006202
867.0120	0.005105
867.7281	0.006096
868.4443	0.004366
869.1606	0.005189
869.8769	0.004809
870.5933	0.004640
871.3097	0.005907
872.0263	0.006286
872.7429	0.004577
873.4596	0.004704
874.1763	0.006054
874.8932	0.005611
875.6101	0.006350
876.3270	0.005780
877.0441	0.005252
877.7612	0.005379
878.4784	0.006413
879.1957	0.006518
879.9130	0.009388
880.6304	0.008945
881.3479	0.007911
882.0654	0.005801
882.7831	0.007384
883.5007	0.006877
884.2185	0.007025
884.9363	0.005084
885.6542	0.007278
886.3722	0.006772
887.0903	0.006329
887.8084	0.004936
888.5266	0.005907
889.2448	0.003438
889.9632	0.005358
890.6816	0.005020
891.4001	0.004577
892.1186	0.004662
892.8372	0.005210
893.5559	0.004704
894.2747	0.003607
894.9935	0.004007
895.7124	0.004134
896.4314	0.004830
897.1504	0.004619
897.8695	0.004894
898.5887	0.003670
899.3079	0.004915
900.0272	0.003459
900.7466	0.004662
901.4661	0.003691
902.1856	0.004451
902.9052	0.004809
903.6249	0.004029
904.3446	0.005295
905.0644	0.004029
905.7843	0.004387
906.5043	0.004957
907.2243	0.004007
907.9444	0.003353
908.6645	0.005084
909.3847	0.003733
910.1050	0.004050
910.8254	0.004345
911.5458	0.004809
912.2663	0.004978
912.9869	0.004071
913.7075	0.004704
914.4283	0.004134
915.1490	0.002826
915.8699	0.003712
916.5908	0.002995
917.3118	0.004050
918.0328	0.004007
918.7539	0.005231
919.4751	0.002024
920.1964	0.005463
920.9177	0.003501
921.6391	0.004303
922.3606	0.003860
923.0821	0.002952
923.8037	0.002362
924.5254	0.004345
925.2471	0.002995
925.9689	0.002256
926.6908	0.001496
927.4127	0.002530
928.1347	0.003206
928.8568	0.002551
929.5789	0.003016
930.3011	0.002741
931.0234	0.002826
931.7457	0.002488
932.4681	0.002636
933.1906	0.002214
933.9131	0.001053
934.6358	0.003818
935.3584	0.002172
936.0812	0.002973
936.8040	0.001243
937.5269	0.002235
938.2498	0.002931
938.9728	0.002678
939.6959	0.001602
940.4190	0.000399
941.1422	0.000716
941.8655	0.001032
942.5889	0.000652
943.3123	0.000673
944.0357	0.001961
944.7593	0.001032
945.4829	0.002151
946.2066	0.001264
946.9303	0.003754
947.6541	0.000547
948.3780	0.001138
949.1019	0.000652
949.8259	0.001095
950.5500	0.001644
951.2741	0.001792
951.9983	0.001201
952.7226	0.001074
953.4469	0.002045
954.1713	0.001518
954.8958	0.000484
955.6203	0.000842
956.3449	0.000336
957.0696	0.001433
957.7943	0.000821
958.5191	0.002383
959.2439	0.001264
959.9688	0.001897
960.6938	0.002129
961.4189	0.001982
962.1440	-0.000128
962.8692	0.000821
963.5944	0.000019
964.3197	0.001349
965.0451	0.001011
965.7705	0.001707
966.4960	0.001074
967.2216	0.002362
967.9472	0.001307
968.6729	0.000040
969.3987	0.001433
970.1245	0.001433
970.8504	0.000716
971.5763	0.000990
972.3023	-0.000192
973.0284	0.001750
973.7545	0.000695
974.4807	0.001750
975.2070	0.000526
975.9333	0.000125
976.6597	0.000589
977.3862	0.000758
978.1127	0.000462
978.8393	0.000779
979.5659	0.000462
980.2926	0.001243
981.0194	0.001370
981.7462	0.000737
982.4731	0.000652
983.2001	0.000420
983.9271	0.000209
984.6542	0.001095
985.3814	-0.000023
986.1086	0.001665
986.8358	0.000969
987.5632	0.000631
988.2906	0.000568
989.0180	0.000526
989.7456	0.000927
990.4732	0.000969
991.2008	-0.000002
991.9285	0.000547
992.6563	-0.000107
993.3841	-0.000149
994.1120	0.000378
994.8400	0.000441
995.5680	-0.000466
996.2961	0.001095
997.0242	-0.000614
997.7524	0.001412
998.4807	0.000568
999.2090	0.000758
999.9374	0.001665
1000.67	-0.000107
1001.39	-0.000909
1002.12	0.000083
1002.85	-0.000593
1003.58	0.001391
1004.31	0.000927
1005.04	-0.000171
1005.77	0.000652
1006.5	-0.001036
1007.22	-0.000023
1007.95	0.000927
1008.68	0.001264
1009.41	-0.001205
1010.14	0.000420
1010.87	0.000019
1011.6	0.000336
1012.33	-0.000086
1013.06	0.001623
1013.79	0.001138
1014.52	0.000420
1015.25	-0.000002
1015.98	0.001918
1016.71	0.000146
1017.44	0.001011
1018.17	-0.000044
1018.9	0.000420
1019.63	0.000906
1020.36	0.000062
1021.09	-0.000888
1021.82	-0.000044
1022.55	-0.000782
1023.03	-0.000382