File: Auto_Polymerization/Spectra/DMSO+Anisole_spectrum_2025-06-19_14-50-25.txt
# Wavelength (nm)	Intensity (a.u.)
197.7802	0.000215
198.3922	0.000405
199.0044	-0.000334
199.6168	-0.000039
200.2292	0.000911
200.8418	0.001333
201.4546	0.001861
202.0674	0.001776
202.6805	0.000468
203.2936	-0.000060
203.9069	0.000890
204.5203	0.000763
205.1338	-0.000798
205.7475	-0.000208
206.3614	0.000151
206.9753	-0.000018
207.5894	0.000594
208.2036	-0.000208
208.8180	-0.000144
209.4325	-0.001347
210.0471	-0.000355
210.6618	-0.000798
211.2767	-0.000630
211.8918	-0.000250
212.5069	-0.000271
213.1222	-0.000482
213.7376	-0.000440
214.3532	-0.001326
214.9689	0.000215
215.5847	-0.000967
216.2007	-0.001010
216.8168	-0.001410
217.4330	-0.000735
218.0494	0.000362
218.6659	0.000763
219.2825	0.000447
219.8992	0.000531
220.5161	0.001607
221.1332	0.000763
221.7503	-0.000524
222.3676	-0.000440
222.9850	0.000172
223.6026	0.000700
224.2203	0.001291
224.8381	0.000468
225.4561	0.000616
226.0742	0.000721
226.6924	-0.001010
227.3107	-0.000039
227.9292	0.001038
228.5478	0.000088
229.1666	0.000426
229.7855	-0.000988
230.4045	0.000193
231.0236	-0.000587
231.6429	0.000594
232.2623	-0.000545
232.8818	0.000109
233.5015	0.001270
234.1213	-0.000376
234.7413	-0.000123
235.3613	-0.000229
235.9815	-0.000545
236.6018	-0.001136
237.2223	0.000236
237.8429	-0.000566
238.4636	0.001228
239.0845	0.000679
239.7055	0.000383
240.3266	-0.000883
240.9478	0.000911
241.5692	-0.000503
242.1907	-0.000208
242.8124	-0.000355
243.4341	-0.000208
244.0560	0.000088
244.6781	0.000827
245.3002	0.000784
245.9225	0.000784
246.5449	-0.000630
247.1675	-0.000482
247.7902	0.000046
248.4130	0.000447
249.0359	0.000320
249.6590	-0.000292
250.2822	-0.000587
250.9056	0.000658
251.5290	0.000067
252.1526	0.000257
252.7763	-0.000018
253.4002	0.000637
254.0242	-0.000376
254.6483	0.000679
255.2725	0.000489
255.8969	0.001650
256.5214	-0.000208
257.1460	0.001418
257.7708	0.000257
258.3957	-0.000925
259.0207	-0.000524
259.6459	-0.000039
260.2711	0.000700
260.8965	0.000552
261.5221	-0.000672
262.1477	-0.000461
262.7735	0.002135
263.3995	0.000130
264.0255	0.001038
264.6517	-0.000039
265.2780	0.001481
265.9044	0.001038
266.5310	0.000088
267.1577	0.001439
267.7845	0.000658
268.4114	0.001101
269.0385	-0.000123
269.6657	0.001439
270.2931	0.000046
270.9205	-0.000123
271.5481	-0.000250
272.1758	-0.000208
272.8037	0.000700
273.4316	0.000974
274.0597	0.000299
274.6880	0.000763
275.3163	0.000573
275.9448	0.000004
276.5734	-0.000461
277.2022	0.000151
277.8310	0.000426
278.4600	0.000594
279.0891	0.001101
279.7184	0.000362
280.3477	0.000004
280.9772	-0.000925
281.6069	0.000236
282.2366	0.000109
282.8665	-0.000841
283.4965	0.000594
284.1266	-0.000144
284.7569	0.000763
285.3873	0.000805
286.0178	0.001354
286.6484	0.000510
287.2792	-0.000419
287.9101	0.000573
288.5411	-0.000693
289.1723	0.000890
289.8035	0.000827
290.4349	0.001017
291.0665	0.000637
291.6981	-0.000925
292.3299	-0.000630
292.9618	-0.000461
293.5938	-0.000123
294.2260	0.000193
294.8582	-0.000988
295.4906	-0.000967
296.1232	-0.000587
296.7558	0.001291
297.3886	-0.000081
298.0215	-0.000102
298.6545	0.001101
299.2877	-0.000039
299.9210	0.001312
300.5544	0.000637
301.1879	0.001017
301.8215	0.001101
302.4553	0.000911
303.0892	-0.000250
303.7233	0.000658
304.3574	0.000995
304.9917	-0.000334
305.6261	-0.000250
306.2606	-0.000693
306.8953	0.000700
307.5301	0.000616
308.1650	0.000616
308.8000	0.000004
309.4351	0.000468
310.0704	0.000405
310.7058	-0.001094
311.3413	0.000193
311.9770	0.001249
312.6127	0.000510
313.2486	0.000215
313.8846	0.001903
314.5208	0.000236
315.1570	0.000995
315.7934	0.000004
316.4299	0.001671
317.0666	0.001439
317.7033	0.001734
318.3402	0.000911
318.9772	0.001354
319.6143	0.000763
320.2516	0.001734
320.8890	0.001629
321.5265	0.002979
322.1641	0.001945
322.8018	0.001439
323.4397	0.002304
324.0777	0.003422
324.7158	0.000447
325.3540	0.003676
325.9924	0.002346
326.6308	0.002958
327.2694	0.003401
327.9082	0.002578
328.5470	0.001629
329.1860	0.003000
329.8251	0.003802
330.4643	0.003633
331.1036	0.002452
331.7431	0.002874
332.3826	0.001755
333.0223	0.003465
333.6622	0.003845
334.3021	0.004246
334.9422	0.004267
335.5823	0.004435
336.2227	0.003676
336.8631	0.004013
337.5036	0.004435
338.1443	0.004034
338.7851	0.005765
339.4260	0.004520
340.0670	0.005554
340.7082	0.004858
341.3495	0.006103
341.9909	0.006314
342.6324	0.006250
343.2740	0.006630
343.9158	0.005997
344.5577	0.006483
345.1997	0.007432
345.8418	0.008171
346.4840	0.005448
347.1264	0.007960
347.7689	0.006124
348.4115	0.007559
349.0542	0.007580
349.6971	0.007390
350.3400	0.007432
350.9831	0.007601
351.6263	0.007876
352.2696	0.009036
352.9131	0.008044
353.5566	0.008973
354.2003	0.009691
354.8441	0.009627
355.4881	0.008340
356.1321	0.009247
356.7763	0.008171
357.4206	0.007749
358.0650	0.009311
358.7095	0.009733
359.3541	0.007791
359.9989	0.010028
360.6438	0.009669
361.2888	0.008931
361.9339	0.008846
362.5791	0.009479
363.2245	0.010893
363.8699	0.010893
364.5155	0.009374
365.1612	0.009564
365.8071	0.010957
366.4530	0.009691
367.0991	0.013046
367.7453	0.011105
368.3916	0.011759
369.0380	0.010915
369.6845	0.012223
370.3312	0.011949
370.9780	0.012835
371.6249	0.013384
372.2719	0.013257
372.9190	0.013173
373.5663	0.013911
374.2136	0.013173
374.8611	0.015283
375.5087	0.015621
376.1564	0.016950
376.8043	0.016592
377.4522	0.016592
378.1003	0.018027
378.7485	0.016423
379.3968	0.018048
380.0452	0.016592
380.6938	0.019589
381.3424	0.019166
381.9912	0.019842
382.6401	0.021214
383.2891	0.021678
383.9382	0.020454
384.5875	0.021593
385.2368	0.022205
385.8863	0.022965
386.5359	0.021171
387.1856	0.020412
387.8355	0.022965
388.4854	0.024210
389.1355	0.023999
389.7856	0.023683
390.4359	0.024780
391.0863	0.026004
391.7369	0.025160
392.3875	0.028706
393.0383	0.029022
393.6891	0.028431
394.3401	0.029360
394.9912	0.029719
395.6425	0.026806
396.2938	0.027988
396.9453	0.028959
397.5968	0.031724
398.2485	0.032399
398.9003	0.033496
399.5522	0.031703
400.2043	0.032483
400.8564	0.031154
401.5087	0.030563
402.1610	0.031639
402.8135	0.031449
403.4661	0.032188
404.1189	0.031491
404.7717	0.034573
405.4246	0.034362
406.0777	0.033961
406.7309	0.031618
407.3842	0.033032
408.0376	0.031639
408.6911	0.034045
409.3448	0.035881
409.9985	0.033328
410.6524	0.030415
411.3064	0.032800
411.9605	0.030668
412.6147	0.033560
413.2690	0.035037
413.9234	0.036050
414.5780	0.032948
415.2326	0.033602
415.8874	0.032652
416.5423	0.033412
417.1973	0.032990
417.8524	0.036092
418.5077	0.034488
419.1630	0.037148
419.8185	0.037274
420.4741	0.036578
421.1298	0.039997
421.7856	0.042002
422.4415	0.041073
423.0975	0.040355
423.7536	0.040756
424.4099	0.040081
425.0663	0.038477
425.7228	0.038498
426.3793	0.035966
427.0361	0.035776
427.6929	0.040039
428.3498	0.038540
429.0068	0.038245
429.6640	0.044386
430.3213	0.047721
430.9787	0.043226
431.6362	0.038393
432.2938	0.036852
432.9515	0.036620
433.6093	0.043437
434.2673	0.043036
434.9253	0.039300
435.5835	0.039216
436.2418	0.041896
436.9001	0.043416
437.5586	0.041980
438.2173	0.044513
438.8760	0.043901
439.5348	0.042508
440.1938	0.042276
440.8528	0.042930
441.5120	0.053229
442.1713	0.052343
442.8307	0.048861
443.4902	0.049705
444.1498	0.051541
444.8095	0.051667
445.4694	0.054052
446.1293	0.048649
446.7894	0.053567
447.4496	0.049726
448.1098	0.050211
448.7702	0.050464
449.4307	0.049346
450.0914	0.046666
450.7521	0.049029
451.4129	0.045526
452.0739	0.046729
452.7349	0.048565
453.3961	0.045336
454.0574	0.045399
454.7188	0.043627
455.3803	0.045336
456.0419	0.046265
456.7036	0.044724
457.3654	0.045463
458.0274	0.045821
458.6894	0.049557
459.3516	0.048861
460.0138	0.049219
460.6762	0.048713
461.3387	0.048692
462.0013	0.046328
462.6640	0.044323
463.3268	0.045969
463.9897	0.048987
464.6528	0.052005
465.3159	0.053862
465.9792	0.057070
466.6425	0.050359
467.3060	0.046370
467.9696	0.045104
468.6333	0.043690
469.2970	0.044386
469.9610	0.040292
470.6250	0.037253
471.2891	0.040967
471.9533	0.040862
472.6177	0.041094
473.2821	0.043373
473.9467	0.045463
474.6113	0.042930
475.2761	0.050063
475.9410	0.046982
476.6060	0.047172
477.2711	0.042107
477.9363	0.045800
478.6016	0.043943
479.2670	0.043648
479.9325	0.046729
480.5982	0.049810
481.2639	0.049135
481.9298	0.051245
482.5957	0.050718
483.2618	0.047784
483.9280	0.049008
484.5943	0.057492
485.2606	0.057134
485.9271	0.178168
486.5937	0.125407
487.2605	0.096240
487.9273	0.057598
488.5942	0.053504
489.2612	0.049937
489.9284	0.050148
490.5956	0.049895
491.2630	0.050992
491.9304	0.050211
492.5980	0.050739
493.2657	0.049599
493.9334	0.050275
494.6013	0.051224
495.2693	0.048417
495.9374	0.048544
496.6056	0.055340
497.2739	0.051541
497.9423	0.046138
498.6109	0.047742
499.2795	0.051667
499.9482	0.052680
500.6171	0.050992
501.2860	0.050085
501.9551	0.052723
502.6242	0.054137
503.2935	0.051773
503.9628	0.052279
504.6323	0.048692
505.3019	0.048628
505.9716	0.046666
506.6414	0.051604
507.3113	0.047088
507.9813	0.047784
508.6514	0.049219
509.3216	0.044450
509.9919	0.045547
510.6623	0.043141
511.3329	0.046581
512.0035	0.045505
512.6742	0.043542
513.3451	0.044872
514.0160	0.043521
514.6871	0.042318
515.3582	0.039701
516.0295	0.040799
516.7008	0.043584
517.3723	0.042234
518.0439	0.039174
518.7155	0.036789
519.3873	0.042128
520.0592	0.039195
520.7312	0.036472
521.4033	0.036599
522.0755	0.035100
522.7478	0.036303
523.4202	0.034066
524.0927	0.035248
524.7653	0.035079
525.4380	0.036219
526.1108	0.036936
526.7837	0.036514
527.4568	0.035269
528.1299	0.035290
528.8031	0.037696
529.4765	0.039258
530.1499	0.035670
530.8234	0.035333
531.4971	0.035797
532.1708	0.036810
532.8447	0.037886
533.5186	0.043605
534.1927	0.041664
534.8668	0.041980
535.5411	0.045252
536.2155	0.043394
536.8899	0.039997
537.5645	0.038034
538.2392	0.043310
538.9139	0.043774
539.5888	0.043458
540.2638	0.043605
540.9389	0.045716
541.6140	0.045674
542.2893	0.046307
542.9647	0.045568
543.6402	0.046750
544.3158	0.050042
544.9915	0.047573
545.6673	0.045927
546.3432	0.043268
547.0192	0.047447
547.6953	0.050338
548.3715	0.055171
549.0478	0.053208
549.7242	0.048059
550.4007	0.046708
551.0773	0.043542
551.7540	0.043648
552.4308	0.051309
553.1077	0.048945
553.7847	0.054348
554.4618	0.048481
555.1390	0.048776
555.8163	0.051921
556.4937	0.052279
557.1712	0.049663
557.8488	0.049262
558.5266	0.047679
559.2044	0.044049
559.8823	0.048396
560.5603	0.053124
561.2384	0.058336
561.9166	0.055804
562.5949	0.051224
563.2733	0.055931
563.9519	0.058252
564.6305	0.057556
565.3092	0.059793
565.9880	0.060616
566.6669	0.062979
567.3459	0.075051
568.0250	0.076697
568.7043	0.088368
569.3836	0.105231
570.0630	0.135199
570.7425	0.139336
571.4221	0.167932
572.1018	0.181249
572.7816	0.149023
573.4615	0.175403
574.1415	0.200982
574.8216	0.214974
575.5018	0.213518
576.1821	0.191316
576.8626	0.220145
577.5431	0.232554
578.2237	0.279174
578.9044	0.233040
579.5851	0.231942
580.2660	0.240975
580.9470	0.235931
581.6281	0.356227
582.3093	0.339955
582.9906	0.264718
583.6720	0.213624
584.3535	0.219976
585.0351	0.249902
585.7167	0.256403
586.3985	0.222593
587.0804	0.232892
587.7624	0.243866
588.4445	0.210416
589.1266	0.185238
589.8089	0.172596
590.4913	0.161221
591.1737	0.140602
591.8563	0.138175
592.5389	0.160271
593.2217	0.213961
593.9046	0.201784
594.5875	0.176543
595.2705	0.202396
595.9537	0.174791
596.6369	0.149086
597.3203	0.152674
598.0037	0.146342
598.6872	0.157760
599.3709	0.187602
600.0546	0.184584
600.7384	0.183951
601.4223	0.185892
602.1064	0.171689
602.7905	0.171626
603.4747	0.186293
604.1590	0.174939
604.8434	0.156093
605.5279	0.164091
606.2125	0.172786
606.8972	0.154932
607.5819	0.156283
608.2668	0.146385
608.9518	0.141235
609.6369	0.128741
610.3220	0.148453
611.0073	0.138871
611.6927	0.136444
612.3781	0.129374
613.0637	0.127327
613.7493	0.124415
614.4351	0.125196
615.1209	0.126800
615.8068	0.126251
616.4929	0.113546
617.1790	0.109726
617.8652	0.110127
618.5515	0.100757
619.2379	0.088621
619.9244	0.090985
620.6110	0.092568
621.2977	0.074080
621.9845	0.077774
622.6714	0.081995
623.3584	0.086511
624.0454	0.084844
624.7326	0.089234
625.4199	0.080644
626.1072	0.075115
626.7947	0.069036
627.4822	0.069543
628.1698	0.062367
628.8576	0.057830
629.5454	0.063233
630.2333	0.058210
630.9213	0.054390
631.6094	0.049304
632.2976	0.050063
632.9859	0.046180
633.6743	0.043373
634.3628	0.041284
635.0514	0.039216
635.7400	0.039976
636.4288	0.045737
637.1177	0.044977
637.8066	0.039258
638.4957	0.039448
639.1848	0.039131
639.8740	0.037819
640.5633	0.035042
641.2528	0.034289
641.9423	0.032158
642.6319	0.027682
643.3216	0.029168
644.0113	0.028345
644.7012	0.027875
645.3912	0.026604
646.0812	0.026898
646.7714	0.023954
647.4616	0.024191
648.1520	0.029245
648.8424	0.032731
649.5329	0.033831
650.2236	0.028950
650.9143	0.027386
651.6051	0.028551
652.2960	0.033059
652.9870	0.031281
653.6780	0.031409
654.3692	0.031911
655.0605	0.059169
655.7518	0.936121
656.4433	1.000000
657.1348	0.832987
657.8264	0.507004
658.5181	0.386324
659.2099	0.298033
659.9018	0.082703
660.5938	0.028269
661.2859	0.022783
661.9781	0.021086
662.6704	0.022080
663.3627	0.019803
664.0552	0.022718
664.7477	0.020571
665.4403	0.023397
666.1330	0.020305
666.8259	0.021075
667.5188	0.019970
668.2117	0.020980
668.9048	0.019652
669.5980	0.019166
670.2913	0.021129
670.9846	0.020876
671.6781	0.028284
672.3716	0.031238
673.0652	0.030879
673.7589	0.027672
674.4527	0.027735
675.1466	0.025371
675.8406	0.023197
676.5347	0.024780
677.2288	0.023704
677.9231	0.029043
678.6174	0.028115
679.3119	0.032441
680.0064	0.036008
680.7010	0.033855
681.3957	0.035206
682.0905	0.031977
682.7854	0.027735
683.4803	0.028896
684.1754	0.031196
684.8705	0.037844
685.5658	0.043753
686.2611	0.043352
686.9565	0.041432
687.6520	0.041791
688.3476	0.039575
689.0433	0.035522
689.7390	0.036915
690.4349	0.033243
691.1308	0.035881
691.8269	0.035544
692.5230	0.035248
693.2192	0.038540
693.9155	0.037633
694.6119	0.031238
695.3083	0.035522
696.0049	0.029170
696.7016	0.033454
697.3983	0.037570
698.0951	0.036915
698.7920	0.033644
699.4890	0.035670
700.1861	0.030816
700.8833	0.030331
701.5806	0.026996
702.2779	0.029043
702.9753	0.029951
703.6729	0.027587
704.3705	0.028917
705.0682	0.021488
705.7660	0.021931
706.4638	0.031196
707.1618	0.035923
707.8599	0.035501
708.5580	0.038139
709.2562	0.033391
709.9545	0.032779
710.6529	0.034277
711.3514	0.031196
712.0500	0.027228
712.7486	0.026300
713.4474	0.029993
714.1462	0.033623
714.8451	0.033496
715.5441	0.033412
716.2432	0.030690
716.9424	0.028875
717.6416	0.027862
718.3410	0.028558
719.0404	0.027439
719.7399	0.028811
720.4395	0.026680
721.1392	0.029550
721.8390	0.030605
722.5388	0.026574
723.2388	0.027566
723.9388	0.027714
724.6389	0.025118
725.3391	0.030077
726.0394	0.032905
726.7398	0.032821
727.4403	0.031217
728.1408	0.032758
728.8414	0.033391
729.5421	0.034699
730.2429	0.034425
730.9438	0.040292
731.6448	0.043268
732.3458	0.038963
733.0470	0.040482
733.7482	0.043943
734.4495	0.050275
735.1509	0.045990
735.8524	0.044998
736.5539	0.044661
737.2556	0.048565
737.9573	0.040503
738.6591	0.039068
739.3610	0.042888
740.0630	0.043205
740.7651	0.038329
741.4672	0.034531
742.1695	0.031892
742.8718	0.035923
743.5742	0.030732
744.2767	0.028558
744.9792	0.029930
745.6819	0.028262
746.3846	0.025835
747.0874	0.029592
747.7903	0.029402
748.4933	0.027439
749.1964	0.030394
749.8995	0.036261
750.6028	0.036810
751.3061	0.035670
752.0095	0.039152
752.7130	0.035100
753.4166	0.036282
754.1202	0.040566
754.8239	0.038984
755.5278	0.039237
756.2317	0.041411
756.9356	0.050781
757.6397	0.056015
758.3438	0.057218
759.0481	0.052005
759.7524	0.057007
760.4568	0.061164
761.1613	0.059898
761.8658	0.050464
762.5705	0.047109
763.2752	0.048818
763.9800	0.045716
764.6849	0.055614
765.3898	0.054517
766.0949	0.047869
766.8000	0.039575
767.5052	0.037316
768.2105	0.039131
768.9159	0.046011
769.6214	0.045041
770.3269	0.043057
771.0325	0.046075
771.7382	0.043205
772.4440	0.039385
773.1499	0.038899
773.8558	0.037675
774.5618	0.030457
775.2679	0.029381
775.9741	0.026659
776.6804	0.024274
777.3868	0.024464
778.0932	0.024928
778.7997	0.026215
779.5063	0.030563
780.2130	0.025498
780.9197	0.027228
781.6265	0.036261
782.3335	0.034847
783.0405	0.033243
783.7475	0.032357
784.4547	0.029866
785.1619	0.027397
785.8692	0.029761
786.5766	0.025835
787.2841	0.025751
787.9917	0.028157
788.6993	0.028115
789.4070	0.029444
790.1148	0.025540
790.8227	0.023957
791.5306	0.021889
792.2387	0.022480
792.9468	0.021931
793.6550	0.026047
794.3632	0.029761
795.0716	0.032125
795.7800	0.027883
796.4885	0.020960
797.1971	0.021868
797.9058	0.022606
798.6145	0.021636
799.3233	0.021087
800.0322	0.018934
800.7412	0.017288
801.4503	0.018343
802.1594	0.015642
802.8686	0.016972
803.5779	0.018723
804.2873	0.016212
804.9968	0.018069
805.7063	0.016908
806.4159	0.023261
807.1256	0.022775
807.8354	0.019525
808.5452	0.022079
809.2551	0.020855
809.9651	0.019399
810.6752	0.017204
811.3853	0.017457
812.0956	0.015051
812.8059	0.014671
813.5163	0.017478
814.2267	0.019567
814.9373	0.017098
815.6479	0.015030
816.3586	0.014038
817.0694	0.014587
817.7802	0.012856
818.4912	0.013468
819.2022	0.012434
819.9133	0.011906
820.6244	0.014312
821.3357	0.015199
822.0470	0.013447
822.7584	0.012856
823.4698	0.010577
824.1814	0.011843
824.8930	0.010830
825.6047	0.012603
826.3165	0.011126
827.0283	0.012983
827.7402	0.013363
828.4522	0.012919
829.1643	0.012160
829.8765	0.010915
830.5887	0.010197
831.3010	0.007918
832.0134	0.009078
832.7259	0.008867
833.4384	0.008614
834.1510	0.010556
834.8637	0.010957
835.5765	0.008952
836.2893	0.008171
837.0022	0.008677
837.7152	0.006208
838.4283	0.006694
839.1414	0.007643
839.8546	0.008994
840.5679	0.006377
841.2813	0.006525
841.9947	0.005638
842.7082	0.006778
843.4218	0.005596
844.1355	0.006504
844.8492	0.004984
845.5631	0.004309
846.2770	0.005259
846.9909	0.004246
847.7050	0.004731
848.4191	0.004879
849.1333	0.002916
849.8475	0.004224
850.5619	0.004224
851.2763	0.003908
851.9908	0.005575
852.7053	0.008910
853.4200	0.013320
854.1347	0.013679
854.8495	0.012561
855.5643	0.012730
856.2792	0.012033
856.9942	0.011379
857.7093	0.010450
858.4245	0.010408
859.1397	0.008002
859.8550	0.009205
860.5704	0.005617
861.2858	0.007475
862.0013	0.007095
862.7169	0.006103
863.4326	0.008044
864.1483	0.005132
864.8642	0.005280
865.5800	0.005301
866.2960	0.004478
867.0120	0.005512
867.7281	0.005849
868.4443	0.005237
869.1606	0.004056
869.8769	0.004752
870.5933	0.003760
871.3097	0.005892
872.0263	0.004879
872.7429	0.004034
873.4596	0.004900
874.1763	0.004288
874.8932	0.003612
875.6101	0.006335
876.3270	0.006061
877.0441	0.004182
877.7612	0.005385
878.4784	0.007475
879.1957	0.006546
879.9130	0.008720
880.6304	0.006799
881.3479	0.008234
882.0654	0.007116
882.7831	0.006736
883.5007	0.005828
884.2185	0.006335
884.9363	0.006039
885.6542	0.006546
886.3722	0.006694
887.0903	0.006082
887.8084	0.005828
888.5266	0.006398
889.2448	0.005280
889.9632	0.003655
890.6816	0.004056
891.4001	0.005280
892.1186	0.005660
892.8372	0.003233
893.5559	0.005153
894.2747	0.005512
894.9935	0.004013
895.7124	0.004773
896.4314	0.004267
897.1504	0.004731
897.8695	0.006462
898.5887	0.003887
899.3079	0.003085
900.0272	0.003296
900.7466	0.005174
901.4661	0.003507
902.1856	0.003992
902.9052	0.003570
903.6249	0.004435
904.3446	0.003992
905.0644	0.002599
905.7843	0.004773
906.5043	0.004773
907.2243	0.004119
907.9444	0.005216
908.6645	0.004056
909.3847	0.003570
910.1050	0.003401
910.8254	0.004098
911.5458	0.002663
912.2663	0.002409
912.9869	0.003823
913.7075	0.003549
914.4283	0.003254
915.1490	0.004119
915.8699	0.002093
916.5908	0.003233
917.3118	0.004203
918.0328	0.004731
918.7539	0.003887
919.4751	0.004562
920.1964	0.002937
920.9177	0.002198
921.6391	0.003718
922.3606	0.003401
923.0821	0.001713
923.8037	0.003190
924.5254	0.004330
925.2471	0.003085
925.9689	0.003971
926.6908	0.001418
927.4127	0.002979
928.1347	0.004203
928.8568	0.000953
929.5789	0.001903
930.3011	0.002346
931.0234	0.001924
931.7457	0.000531
932.4681	0.002030
933.1906	0.002114
933.9131	0.003000
934.6358	0.001375
935.3584	0.003739
936.0812	0.001481
936.8040	0.002494
937.5269	0.001650
938.2498	0.000911
938.9728	0.001945
939.6959	0.003486
940.4190	0.001354
941.1422	0.001396
941.8655	0.003317
942.5889	0.000362
943.3123	0.000426
944.0357	0.001080
944.7593	0.001312
945.4829	-0.000144
946.2066	0.001206
946.9303	0.000236
947.6541	0.001101
948.3780	0.001354
949.1019	0.001840
949.8259	0.001185
950.5500	0.002979
951.2741	0.001607
951.9983	0.000890
952.7226	0.002114
953.4469	0.003380
954.1713	0.000320
954.8958	0.001692
955.6203	0.002008
956.3449	0.000383
957.0696	0.000383
957.7943	0.001523
958.5191	0.001354
959.2439	0.000890
959.9688	-0.000208
960.6938	0.002241
961.4189	0.001481
962.1440	0.000995
962.8692	0.001249
963.5944	0.001544
964.3197	-0.000587
965.0451	0.001565
965.7705	0.000426
966.4960	0.000805
967.2216	0.000848
967.9472	0.000088
968.6729	-0.001263
969.3987	0.000257
970.1245	-0.000609
970.8504	-0.000208
971.5763	0.000362
972.3023	-0.000039
973.0284	-0.001157
973.7545	0.002409
974.4807	0.000763
975.2070	-0.000334
975.9333	-0.000229
976.6597	0.001312
977.3862	0.001418
978.1127	-0.000651
978.8393	0.001586
979.5659	0.000025
980.2926	0.001017
981.0194	0.000805
981.7462	0.000299
982.4731	0.000637
983.2001	-0.000039
983.9271	0.000151
984.6542	-0.000566
985.3814	0.001396
986.1086	-0.000566
986.8358	0.000130
987.5632	-0.000397
988.2906	0.000088
989.0180	-0.000587
989.7456	-0.000018
990.4732	-0.001031
991.2008	0.001544
991.9285	0.001206
992.6563	0.001059
993.3841	0.000594
994.1120	0.000552
994.8400	-0.000144
995.5680	0.000236
996.2961	-0.000967
997.0242	0.000995
997.7524	0.000510
998.4807	0.000848
999.2090	-0.001537
999.9374	0.000911
1000.67	0.000637
1001.39	-0.000018
1002.12	0.001059
1002.85	-0.000524
1003.58	0.000531
1004.31	-0.000165
1005.04	-0.000186
1005.77	-0.000904
1006.5	0.002030
1007.22	0.000510
1007.95	0.002325
1008.68	0.000320
1009.41	-0.000081
1010.14	-0.000566
1010.87	-0.000102
1011.6	-0.001031
1012.33	0.000004
1013.06	0.001776
1013.79	0.000890
1014.52	0.000405
1015.25	0.000890
1015.98	-0.000376
1016.71	0.001017
1017.44	0.000341
1018.17	0.000299
1018.9	-0.000292
1019.63	-0.000798
1020.36	-0.000503
1021.09	-0.000081
1021.82	-0.000039
1022.55	0.000193
1023.03	-0.000545