File: Auto_Polymerization/Spectra/pure_DMSO_spectrum_2025-06-19_14-37-37.txt
# Wavelength (nm)	Intensity (a.u.)
197.7802	0.000847
198.3922	0.000974
199.0044	0.001501
199.6168	0.001501
200.2292	0.001269
200.8418	0.001606
201.4546	0.001353
202.0674	0.001121
202.6805	0.000193
203.2936	0.000953
203.9069	0.000278
204.5203	0.001733
205.1338	0.001227
205.7475	0.000974
206.3614	0.000425
206.9753	0.000130
207.5894	0.000257
208.2036	0.001501
208.8180	0.000889
209.4325	0.001543
210.0471	0.000889
210.6618	0.000953
211.2767	0.000468
211.8918	0.000151
212.5069	0.001522
213.1222	0.000109
213.7376	0.000257
214.3532	0.000151
214.9689	0.000805
215.5847	0.000214
216.2007	0.000932
216.8168	0.001396
217.4330	0.000784
218.0494	0.000004
218.6659	0.001881
219.2825	-0.000018
219.8992	0.002471
220.5161	0.000151
221.1332	0.000468
221.7503	0.000636
222.3676	0.001332
222.9850	-0.000123
223.6026	0.000552
224.2203	0.002134
224.8381	0.001227
225.4561	0.001079
226.0742	0.000489
226.6924	0.000362
227.3107	0.000847
227.9292	0.002513
228.5478	0.001944
229.1666	0.000299
229.7855	0.001649
230.4045	0.000763
231.0236	0.000531
231.6429	0.000910
232.2623	0.002450
232.8818	0.000151
233.5015	0.002091
234.1213	-0.000271
234.7413	0.002113
235.3613	0.000932
235.9815	0.000552
236.6018	-0.000207
237.2223	0.001564
237.8429	0.001185
238.4636	0.001016
239.0845	-0.000355
239.7055	0.000151
240.3266	0.001206
240.9478	0.000721
241.5692	0.000552
242.1907	0.002851
242.8124	0.001185
243.4341	0.000826
244.0560	-0.000671
244.6781	0.001585
245.3002	0.000531
245.9225	0.001902
246.5449	-0.000334
247.1675	0.002619
247.7902	-0.000186
248.4130	0.001396
249.0359	0.000974
249.6590	0.001564
250.2822	0.002007
250.9056	0.001670
251.5290	-0.000692
252.1526	0.002471
252.7763	0.000046
253.4002	0.002028
254.0242	0.000995
254.6483	-0.000397
255.2725	0.002281
255.8969	0.001838
256.5214	0.000953
257.1460	0.001606
257.7708	0.000889
258.3957	0.001332
259.0207	0.001227
259.6459	0.000742
260.2711	0.000953
260.8965	0.001417
261.5221	0.001016
262.1477	0.002028
262.7735	0.001206
263.3995	0.001838
264.0255	0.000763
264.6517	0.001480
265.2780	0.000953
265.9044	0.001564
266.5310	0.000489
267.1577	0.000636
267.7845	0.000826
268.4114	0.001058
269.0385	0.000278
269.6657	0.001438
270.2931	-0.000460
270.9205	0.001374
271.5481	0.000721
272.1758	0.002914
272.8037	0.000151
273.4316	0.001712
274.0597	0.000383
274.6880	0.001923
275.3163	0.001438
275.9448	0.001353
276.5734	0.001206
277.2022	0.001923
277.8310	0.002070
278.4600	0.001206
279.0891	0.000805
279.7184	0.001754
280.3477	0.000995
280.9772	0.001248
281.6069	0.000594
282.2366	0.001374
282.8665	0.001438
283.4965	0.000826
284.1266	-0.000418
284.7569	0.002176
285.3873	-0.000524
286.0178	0.001438
286.6484	0.000404
287.2792	-0.000250
287.9101	0.000383
288.5411	0.001649
289.1723	-0.000271
289.8035	-0.000671
290.4349	-0.001072
291.0665	0.000974
291.6981	0.001353
292.3299	0.001817
292.9618	-0.000903
293.5938	0.001079
294.2260	-0.000608
294.8582	0.002323
295.4906	-0.000018
296.1232	0.001817
296.7558	0.001860
297.3886	0.001480
298.0215	0.000868
298.6545	0.001649
299.2877	-0.000545
299.9210	0.002851
300.5544	0.000953
301.1879	0.001142
301.8215	0.003019
302.4553	0.000742
303.0892	0.001100
303.7233	0.001438
304.3574	-0.000018
304.9917	0.000573
305.6261	0.000657
306.2606	0.001585
306.8953	0.001606
307.5301	0.001206
308.1650	0.000552
308.8000	0.002323
309.4351	0.000552
310.0704	0.002745
310.7058	0.001944
311.3413	0.001438
311.9770	0.001248
312.6127	0.001079
313.2486	0.002091
313.8846	0.002007
314.5208	0.000615
315.1570	0.002555
315.7934	-0.000123
316.4299	0.003863
317.0666	0.003842
317.7033	0.002555
318.3402	0.002281
318.9772	0.001374
319.6143	0.001796
320.2516	0.003062
320.8890	-0.000376
321.5265	0.004158
322.1641	0.001733
322.8018	0.003315
323.4397	0.003462
324.0777	0.003273
324.7158	0.002998
325.3540	0.004939
325.9924	0.002661
326.6308	0.004580
327.2694	0.003104
327.9082	0.004643
328.5470	0.004032
329.1860	0.004665
329.8251	0.002408
330.4643	0.003800
331.1036	0.002682
331.7431	0.003526
332.3826	0.004116
333.0223	0.004454
333.6622	0.004011
334.3021	0.006753
334.9422	0.004686
335.5823	0.004179
336.2227	0.004875
336.8631	0.005044
337.5036	0.005171
338.1443	0.006563
338.7851	0.006078
339.4260	0.004643
340.0670	0.004791
340.7082	0.006436
341.3495	0.004854
341.9909	0.006289
342.6324	0.006942
343.2740	0.006795
343.9158	0.006415
344.5577	0.008313
345.1997	0.006942
345.8418	0.006900
346.4840	0.009136
347.1264	0.008060
347.7689	0.007723
348.4115	0.008461
349.0542	0.008524
349.6971	0.009051
350.3400	0.010085
350.9831	0.007702
351.6263	0.009515
352.2696	0.010507
352.9131	0.008292
353.5566	0.008946
354.2003	0.009073
354.8441	0.010781
355.4881	0.009241
356.1321	0.010865
356.7763	0.009241
357.4206	0.009979
358.0650	0.010380
358.7095	0.011076
359.3541	0.009305
359.9989	0.010254
360.6438	0.010443
361.2888	0.012131
361.9339	0.010633
362.5791	0.010317
363.2245	0.010570
363.8699	0.010401
364.5155	0.012173
365.1612	0.010781
365.8071	0.010823
366.4530	0.014240
367.0991	0.012553
367.7453	0.012742
368.3916	0.012700
369.0380	0.013270
369.6845	0.013649
370.3312	0.013080
370.9780	0.013017
371.6249	0.013712
372.2719	0.013038
372.9190	0.014493
373.5663	0.016032
374.2136	0.015695
374.8611	0.015421
375.5087	0.016855
376.1564	0.017720
376.8043	0.017614
377.4522	0.019681
378.1003	0.017509
378.7485	0.021136
379.3968	0.020609
380.0452	0.020272
380.6938	0.018479
381.3424	0.021622
381.9912	0.022043
382.6401	0.023372
383.2891	0.023351
383.9382	0.022887
384.5875	0.022550
385.2368	0.023267
385.8863	0.024954
386.5359	0.023478
387.1856	0.024152
387.8355	0.025333
388.4854	0.024996
389.1355	0.026283
389.7856	0.026557
390.4359	0.025376
391.0863	0.028286
391.7369	0.026599
392.3875	0.029573
393.0383	0.031450
393.6891	0.029847
394.3401	0.029741
394.9912	0.030965
395.6425	0.030121
396.2938	0.030290
396.9453	0.032715
397.5968	0.034234
398.2485	0.035077
398.9003	0.036638
399.5522	0.035647
400.2043	0.033285
400.8564	0.033580
401.5087	0.034149
402.1610	0.032399
402.8135	0.032441
403.4661	0.034023
404.1189	0.034571
404.7717	0.036111
405.4246	0.036448
406.0777	0.036807
406.7309	0.033285
407.3842	0.034044
408.0376	0.034107
408.6911	0.037819
409.3448	0.035752
409.9985	0.036301
410.6524	0.033622
411.3064	0.035162
411.9605	0.035162
412.6147	0.035731
413.2690	0.035816
413.9234	0.036849
414.5780	0.034339
415.2326	0.035056
415.8874	0.036132
416.5423	0.036954
417.1973	0.036111
417.8524	0.036069
418.5077	0.036322
419.1630	0.037186
419.8185	0.038241
420.4741	0.041700
421.1298	0.042122
421.7856	0.046551
422.4415	0.044758
423.0975	0.044231
423.7536	0.042607
424.4099	0.041805
425.0663	0.042058
425.7228	0.040139
426.3793	0.037946
427.0361	0.038874
427.6929	0.042269
428.3498	0.040224
429.0068	0.041594
429.6640	0.044336
430.3213	0.048407
430.9787	0.046298
431.6362	0.041004
432.2938	0.039359
432.9515	0.039823
433.6093	0.046677
434.2673	0.046846
434.9253	0.043809
435.5835	0.043113
436.2418	0.042354
436.9001	0.045981
437.5586	0.043999
438.2173	0.044842
438.8760	0.045117
439.5348	0.044442
440.1938	0.046213
440.8528	0.046551
441.5120	0.055114
442.1713	0.055219
442.8307	0.050706
443.4902	0.051296
444.1498	0.057202
444.8095	0.054481
445.4694	0.055767
446.1293	0.054165
446.7894	0.053954
447.4496	0.053722
448.1098	0.050453
448.7702	0.050094
449.4307	0.053405
450.0914	0.051655
450.7521	0.050685
451.4129	0.050495
452.0739	0.048829
452.7349	0.048027
453.3961	0.047837
454.0574	0.045834
454.7188	0.044653
455.3803	0.047310
456.0419	0.048449
456.7036	0.045665
457.3654	0.048280
458.0274	0.052077
458.6894	0.050389
459.3516	0.050326
460.0138	0.053933
460.6762	0.049925
461.3387	0.052119
462.0013	0.048196
462.6640	0.045939
463.3268	0.048365
463.9897	0.052309
464.6528	0.055662
465.3159	0.056843
465.9792	0.059606
466.6425	0.052709
467.3060	0.049693
467.9696	0.049398
468.6333	0.048217
469.2970	0.043155
469.9610	0.039401
470.6250	0.040561
471.2891	0.041236
471.9533	0.041004
472.6177	0.044653
473.2821	0.047837
473.9467	0.048217
474.6113	0.047120
475.2761	0.049651
475.9410	0.048006
476.6060	0.047458
477.2711	0.047289
477.9363	0.050094
478.6016	0.049377
479.2670	0.047690
479.9325	0.051064
480.5982	0.054312
481.2639	0.052773
481.9298	0.053469
482.5957	0.048744
483.2618	0.052330
483.9280	0.051739
484.5943	0.056949
485.2606	0.060534
485.9271	0.186256
486.5937	0.133677
487.2605	0.100712
487.9273	0.060787
488.5942	0.054797
489.2612	0.055261
489.9284	0.051908
490.5956	0.051591
491.2630	0.050558
491.9304	0.052435
492.5980	0.051296
493.2657	0.052034
493.9334	0.052456
494.6013	0.053595
495.2693	0.049482
495.9374	0.049440
496.6056	0.057940
497.2739	0.054924
497.9423	0.048786
498.6109	0.050748
499.2795	0.054038
499.9482	0.054629
500.6171	0.051106
501.2860	0.054228
501.9551	0.054312
502.6242	0.055240
503.2935	0.055451
503.9628	0.054080
504.6323	0.051718
505.3019	0.052182
505.9716	0.048850
506.6414	0.054418
507.3113	0.047795
507.9813	0.049967
508.6514	0.050073
509.3216	0.047036
509.9919	0.049482
510.6623	0.049208
511.3329	0.051781
512.0035	0.048597
512.6742	0.046783
513.3451	0.044674
514.0160	0.044632
514.6871	0.044252
515.3582	0.042206
516.0295	0.043113
516.7008	0.044505
517.3723	0.044948
518.0439	0.043472
518.7155	0.040920
519.3873	0.043893
520.0592	0.041573
520.7312	0.038220
521.4033	0.037650
522.0755	0.034761
522.7478	0.036680
523.4202	0.037735
524.0927	0.038262
524.7653	0.039106
525.4380	0.037545
526.1108	0.037418
526.7837	0.037482
527.4568	0.039000
528.1299	0.037440
528.8031	0.040076
529.4765	0.041320
530.1499	0.038136
530.8234	0.041489
531.4971	0.036765
532.1708	0.038368
532.8447	0.038979
533.5186	0.044842
534.1927	0.043514
534.8668	0.046340
535.5411	0.046108
536.2155	0.043514
536.8899	0.039380
537.5645	0.043535
538.2392	0.044969
538.9139	0.045201
539.5888	0.047394
540.2638	0.045475
540.9389	0.045412
541.6140	0.046804
542.2893	0.050136
542.9647	0.048322
543.6402	0.048343
544.3158	0.051845
544.9915	0.052309
545.6673	0.052878
546.3432	0.048871
547.0192	0.046804
547.6953	0.053089
548.3715	0.057012
549.0478	0.052709
549.7242	0.049672
550.4007	0.047226
551.0773	0.045602
551.7540	0.046635
552.4308	0.055683
553.1077	0.052709
553.7847	0.052751
554.4618	0.049672
555.1390	0.048533
555.8163	0.052920
556.4937	0.054207
557.1712	0.051149
557.8488	0.051570
558.5266	0.048006
559.2044	0.045770
559.8823	0.046382
560.5603	0.057286
561.2384	0.059880
561.9166	0.057413
562.5949	0.057581
563.2733	0.057708
563.9519	0.056780
564.6305	0.061483
565.3092	0.062980
565.9880	0.060998
566.6669	0.064436
567.3459	0.076394
568.0250	0.081224
568.7043	0.091706
569.3836	0.108347
570.0630	0.139983
570.7425	0.146584
571.4221	0.170016
572.1018	0.185876
572.7816	0.161917
573.4615	0.182797
574.1415	0.209730
574.8216	0.219643
575.5018	0.227952
576.1821	0.202939
576.8626	0.230019
577.5431	0.245879
578.2237	0.301875
578.9044	0.243770
579.5851	0.244023
580.2660	0.247546
580.9470	0.243074
581.6281	0.375187
582.3093	0.356669
582.9906	0.277389
583.6720	0.226645
584.3535	0.226244
585.0351	0.257374
585.7167	0.267455
586.3985	0.228585
587.0804	0.239362
587.7624	0.251236
588.4445	0.225337
589.1266	0.195831
589.8089	0.180941
590.4913	0.164174
591.1737	0.146226
591.8563	0.145593
592.5389	0.167527
593.2217	0.222954
593.9046	0.213041
594.5875	0.185328
595.2705	0.213547
595.9537	0.189567
596.6369	0.159007
597.3203	0.164174
598.0037	0.155590
598.6872	0.169278
599.3709	0.200155
600.0546	0.198003
600.7384	0.190811
601.4223	0.195177
602.1064	0.178537
602.7905	0.183324
603.4747	0.199564
604.1590	0.186678
604.8434	0.168181
605.5279	0.169636
606.2125	0.177060
606.8972	0.160146
607.5819	0.167169
608.2668	0.155569
608.9518	0.146626
609.6369	0.136355
610.3220	0.158058
611.0073	0.143104
611.6927	0.146015
612.3781	0.134837
613.0637	0.134183
613.7493	0.132622
614.4351	0.131462
615.1209	0.129944
615.8068	0.135828
616.4929	0.119757
617.1790	0.111447
617.8652	0.111974
618.5515	0.102357
619.2379	0.094279
619.9244	0.096979
620.6110	0.096262
621.2977	0.075445
621.9845	0.084535
622.6714	0.087193
623.3584	0.092318
624.0454	0.089787
624.7326	0.092655
625.4199	0.084620
626.1072	0.077554
626.7947	0.071839
627.4822	0.074559
628.1698	0.063466
628.8576	0.059247
629.5454	0.063234
630.2333	0.062306
630.9213	0.057602
631.6094	0.054776
632.2976	0.052688
632.9859	0.046066
633.6743	0.045412
634.3628	0.044505
635.0514	0.044231
635.7400	0.042333
636.4288	0.046698
637.1177	0.044484
637.8066	0.043071
638.4957	0.043282
639.1848	0.040477
639.8740	0.038070
640.5633	0.036465
641.2528	0.035788
641.9423	0.031501
642.6319	0.029517
643.3216	0.030465
644.0113	0.029954
644.7012	0.025470
645.3912	0.028914
646.0812	0.025077
646.7714	0.025426
647.4616	0.027923
648.1520	0.029358
648.8424	0.034234
649.5329	0.035006
650.2236	0.032631
650.9143	0.030022
651.6051	0.029760
652.2960	0.032171
652.9870	0.031835
653.6780	0.033681
654.3692	0.037560
655.0605	0.066164
655.7518	1.015322
656.4433	1.000000
657.1348	0.903030
657.8264	0.548355
658.5181	0.412174
659.2099	0.324819
659.9018	0.087614
660.5938	0.032021
661.2859	0.025621
661.9781	0.022849
662.6704	0.023360
663.3627	0.021476
664.0552	0.022872
664.7477	0.024039
665.4403	0.025465
666.1330	0.024236
666.8259	0.020430
667.5188	0.023160
668.2117	0.022033
668.9048	0.023014
669.5980	0.021263
670.2913	0.023203
670.9846	0.023562
671.6781	0.031260
672.3716	0.032863
673.0652	0.033032
673.7589	0.029826
674.4527	0.028476
675.1466	0.028054
675.8406	0.027675
676.5347	0.024342
677.2288	0.023014
677.9231	0.028919
678.6174	0.031155
679.3119	0.032947
680.0064	0.037735
680.7010	0.036048
681.3957	0.035373
682.0905	0.034972
682.7854	0.031323
683.4803	0.031323
684.1754	0.035225
684.8705	0.041130
685.5658	0.046614
686.2611	0.046256
686.9565	0.043303
687.6520	0.045918
688.3476	0.041025
689.0433	0.037925
689.7390	0.036027
690.4349	0.032251
691.1308	0.040224
691.8269	0.037925
692.5230	0.039085
693.2192	0.038515
693.9155	0.038958
694.6119	0.033538
695.3083	0.037186
696.0049	0.031028
696.7016	0.036512
697.3983	0.041805
698.0951	0.042354
698.7920	0.037144
699.4890	0.037039
700.1861	0.032483
700.8833	0.032673
701.5806	0.031534
702.2779	0.029341
702.9753	0.030859
703.6729	0.032104
704.3705	0.028982
705.0682	0.023710
705.7660	0.023899
706.4638	0.032083
707.1618	0.035204
707.8599	0.040561
708.5580	0.036069
709.2562	0.034529
709.9545	0.034740
710.6529	0.032736
711.3514	0.029889
712.0500	0.030248
712.7486	0.029657
713.4474	0.030205
714.1462	0.034550
714.8451	0.034677
715.5441	0.036280
716.2432	0.029699
716.9424	0.029320
717.6416	0.027443
718.3410	0.030522
719.0404	0.030669
719.7399	0.030986
720.4395	0.028645
721.1392	0.030058
721.8390	0.032547
722.5388	0.030079
723.2388	0.028012
723.9388	0.028792
724.6389	0.030480
725.3391	0.032167
726.0394	0.033453
726.7398	0.034529
727.4403	0.033643
728.1408	0.033854
728.8414	0.034234
729.5421	0.036912
730.2429	0.036469
730.9438	0.044020
731.6448	0.045707
732.3458	0.042670
733.0470	0.044505
733.7482	0.046424
734.4495	0.054650
735.1509	0.048765
735.8524	0.049714
736.5539	0.050453
737.2556	0.051191
737.9573	0.041384
738.6591	0.040941
739.3610	0.048365
740.0630	0.044104
740.7651	0.039865
741.4672	0.037313
742.1695	0.033896
742.8718	0.035162
743.5742	0.030332
744.2767	0.029277
744.9792	0.030480
745.6819	0.027358
746.3846	0.030374
747.0874	0.030733
747.7903	0.032357
748.4933	0.028919
749.1964	0.031576
749.8995	0.036638
750.6028	0.041848
751.3061	0.040519
752.0095	0.040983
752.7130	0.039085
753.4166	0.038283
754.1202	0.043282
754.8239	0.040519
755.5278	0.042143
756.2317	0.047099
756.9356	0.051697
757.6397	0.062580
758.3438	0.058551
759.0481	0.053848
759.7524	0.061462
760.4568	0.063508
761.1613	0.063824
761.8658	0.058783
762.5705	0.049082
763.2752	0.052034
763.9800	0.052393
764.6849	0.059437
765.3898	0.058404
766.0949	0.050495
766.8000	0.040413
767.5052	0.039317
768.2105	0.042965
768.9159	0.050959
769.6214	0.047816
770.3269	0.044146
771.0325	0.047711
771.7382	0.048702
772.4440	0.042269
773.1499	0.038747
773.8558	0.038958
774.5618	0.033390
775.2679	0.029552
775.9741	0.028898
776.6804	0.028539
777.3868	0.024490
778.0932	0.026093
778.7997	0.028645
779.5063	0.033095
780.2130	0.030880
780.9197	0.032947
781.6265	0.036680
782.3335	0.033854
783.0405	0.034613
783.7475	0.036195
784.4547	0.030986
785.1619	0.029024
785.8692	0.029277
786.5766	0.028961
787.2841	0.029151
787.9917	0.030416
788.6993	0.030037
789.4070	0.029952
790.1148	0.027000
790.8227	0.026493
791.5306	0.024764
792.2387	0.023267
792.9468	0.021158
793.6550	0.023688
794.3632	0.033812
795.0716	0.035921
795.7800	0.031218
796.4885	0.025608
797.1971	0.023857
797.9058	0.023836
798.6145	0.023351
799.3233	0.021980
800.0322	0.022381
800.7412	0.019154
801.4503	0.022275
802.1594	0.018627
802.8686	0.016370
803.5779	0.019829
804.2873	0.017361
804.9968	0.016454
805.7063	0.017509
806.4159	0.023604
807.1256	0.024384
807.8354	0.022170
808.5452	0.024448
809.2551	0.022718
809.9651	0.021959
810.6752	0.017361
811.3853	0.017762
812.0956	0.015822
812.8059	0.014767
813.5163	0.016623
814.2267	0.021031
814.9373	0.017931
815.6479	0.012763
816.3586	0.014092
817.0694	0.016159
817.7802	0.012911
818.4912	0.013734
819.2022	0.013544
819.9133	0.012679
820.6244	0.016138
821.3357	0.016855
822.0470	0.015463
822.7584	0.013164
823.4698	0.013502
824.1814	0.012679
824.8930	0.012025
825.6047	0.013249
826.3165	0.012890
827.0283	0.015969
827.7402	0.012911
828.4522	0.013438
829.1643	0.011814
829.8765	0.011456
830.5887	0.011118
831.3010	0.010190
832.0134	0.007913
832.7259	0.009642
833.4384	0.010169
834.1510	0.011287
834.8637	0.012468
835.5765	0.011308
836.2893	0.011793
837.0022	0.008123
837.7152	0.007238
838.4283	0.006710
839.1414	0.008123
839.8546	0.008819
840.5679	0.008440
841.2813	0.007765
841.9947	0.005487
842.7082	0.005044
843.4218	0.004981
844.1355	0.007934
844.8492	0.005867
845.5631	0.006605
846.2770	0.005508
846.9909	0.005445
847.7050	0.006120
848.4191	0.005635
849.1333	0.006963
849.8475	0.005698
850.5619	0.005276
851.2763	0.004158
851.9908	0.005361
852.7053	0.007617
853.4200	0.012995
854.1347	0.012869
854.8495	0.016075
855.5643	0.013818
856.2792	0.014219
856.9942	0.011751
857.7093	0.010654
858.4245	0.010528
859.1397	0.010254
859.8550	0.008841
860.5704	0.007891
861.2858	0.007702
862.0013	0.007617
862.7169	0.006753
863.4326	0.008039
864.1483	0.006668
864.8642	0.006731
865.5800	0.005192
866.2960	0.005297
867.0120	0.006078
867.7281	0.005023
868.4443	0.006204
869.1606	0.003230
869.8769	0.005065
870.5933	0.005129
871.3097	0.005677
872.0263	0.004390
872.7429	0.005361
873.4596	0.006858
874.1763	0.005614
874.8932	0.005529
875.6101	0.007280
876.3270	0.006731
877.0441	0.005234
877.7612	0.006499
878.4784	0.007132
879.1957	0.010043
879.9130	0.008018
880.6304	0.010022
881.3479	0.007913
882.0654	0.007533
882.7831	0.007659
883.5007	0.006710
884.2185	0.005529
884.9363	0.006626
885.6542	0.007217
886.3722	0.006985
887.0903	0.007997
887.8084	0.007090
888.5266	0.004939
889.2448	0.004897
889.9632	0.004369
890.6816	0.005487
891.4001	0.004622
892.1186	0.007807
892.8372	0.004707
893.5559	0.005867
894.2747	0.004433
894.9935	0.005508
895.7124	0.006985
896.4314	0.005951
897.1504	0.005403
897.8695	0.004348
898.5887	0.004686
899.3079	0.005318
900.0272	0.003230
900.7466	0.005466
901.4661	0.004411
902.1856	0.004559
902.9052	0.003505
903.6249	0.006078
904.3446	0.005129
905.0644	0.005466
905.7843	0.007533
906.5043	0.005529
907.2243	0.005234
907.9444	0.004475
908.6645	0.003230
909.3847	0.004411
910.1050	0.002577
910.8254	0.003947
911.5458	0.003462
912.2663	0.005445
912.9869	0.004158
913.7075	0.002935
914.4283	0.002830
915.1490	0.004053
915.8699	0.004222
916.5908	0.004243
917.3118	0.004454
918.0328	0.005023
918.7539	0.004390
919.4751	0.004411
920.1964	0.004580
920.9177	0.004812
921.6391	0.004116
922.3606	0.004707
923.0821	0.004179
923.8037	0.004622
924.5254	0.002619
925.2471	0.003315
925.9689	0.002745
926.6908	0.005086
927.4127	0.002598
928.1347	0.003631
928.8568	0.002998
929.5789	0.002661
930.3011	0.002851
931.0234	0.002239
931.7457	0.002977
932.4681	0.002893
933.1906	0.002134
933.9131	0.003019
934.6358	0.002640
935.3584	0.003589
936.0812	0.002830
936.8040	0.004137
937.5269	0.002513
938.2498	0.001860
938.9728	0.003526
939.6959	0.001923
940.4190	0.001628
941.1422	0.001417
941.8655	0.003209
942.5889	0.001775
943.3123	0.002787
944.0357	0.003062
944.7593	0.004454
945.4829	0.001712
946.2066	0.002176
946.9303	0.000025
947.6541	0.001164
948.3780	0.000257
949.1019	0.002408
949.8259	0.001670
950.5500	0.001796
951.2741	0.001185
951.9983	0.001733
952.7226	0.000151
953.4469	0.001164
954.1713	0.000425
954.8958	0.001944
955.6203	0.000362
956.3449	0.001691
957.0696	0.001037
957.7943	0.000657
958.5191	0.001606
959.2439	0.002450
959.9688	0.002028
960.6938	0.001417
961.4189	0.000763
962.1440	0.001100
962.8692	0.000974
963.5944	0.001902
964.3197	0.001585
965.0451	0.000552
965.7705	0.001079
966.4960	0.000362
967.2216	0.001733
967.9472	0.001817
968.6729	0.001016
969.3987	0.001459
970.1245	0.000130
970.8504	0.000278
971.5763	0.000826
972.3023	0.001902
973.0284	0.001290
973.7545	0.002323
974.4807	0.001079
975.2070	0.002134
975.9333	0.000531
976.6597	0.001100
977.3862	0.001058
978.1127	0.000805
978.8393	0.002640
979.5659	0.001543
980.2926	0.001543
981.0194	0.001269
981.7462	0.000489
982.4731	0.000974
983.2001	0.000657
983.9271	0.000320
984.6542	-0.000039
985.3814	0.002239
986.1086	-0.000081
986.8358	0.001670
987.5632	0.001290
988.2906	0.000320
989.0180	0.001775
989.7456	0.000531
990.4732	0.000721
991.2008	0.001311
991.9285	0.000552
992.6563	0.002766
993.3841	0.001480
994.1120	0.000700
994.8400	0.000257
995.5680	0.001396
996.2961	0.000953
997.0242	0.000109
997.7524	0.000805
998.4807	0.001543
999.2090	0.000383
999.9374	0.000573
1000.67	0.001311
1001.39	0.000341
1002.12	0.000995
1002.85	-0.000018
1003.58	-0.000524
1004.31	0.000489
1005.04	0.002260
1005.77	0.001121
1006.5	0.002007
1007.22	0.000594
1007.95	0.001691
1008.68	0.000847
1009.41	-0.000482
1010.14	0.000257
1010.87	0.001164
1011.6	-0.000397
1012.33	0.001142
1013.06	-0.000376
1013.79	0.001227
1014.52	0.001290
1015.25	0.000468
1015.98	0.001185
1016.71	0.000193
1017.44	0.000995
1018.17	0.001628
1018.9	0.001606
1019.63	0.001079
1020.36	0.000172
1021.09	0.002134
1021.82	-0.000671
1022.55	0.000868
1023.03	0.001522