File: Auto_Polymerization/Spectra/spectrum_2025-06-19_10-06-24.txt
# Wavelength (nm)	Intensity (a.u.)
197.7802	0.000760
198.3922	0.001182
199.0044	-0.000063
199.6168	-0.000422
200.2292	-0.000507
200.8418	-0.001330
201.4546	-0.001499
202.0674	0.000148
202.6805	-0.001098
203.2936	-0.000929
203.9069	-0.001098
204.5203	-0.000591
205.1338	0.001330
205.7475	0.000253
206.3614	0.000211
206.9753	-0.001351
207.5894	-0.000802
208.2036	0.002027
208.8180	-0.000063
209.4325	0.000253
210.0471	0.000148
210.6618	-0.000211
211.2767	-0.002111
211.8918	-0.000127
212.5069	-0.001224
213.1222	-0.001140
213.7376	0.000718
214.3532	-0.000654
214.9689	0.001414
215.5847	-0.000844
216.2007	0.000844
216.8168	0.000338
217.4330	-0.001309
218.0494	-0.000507
218.6659	0.000844
219.2825	0.000507
219.8992	0.000211
220.5161	-0.000697
221.1332	0.001393
221.7503	-0.000802
222.3676	0.001056
222.9850	0.000887
223.6026	0.001246
224.2203	0.000253
224.8381	0.000739
225.4561	0.001056
226.0742	0.000507
226.6924	-0.000317
227.3107	-0.000211
227.9292	-0.000380
228.5478	0.001077
229.1666	-0.001963
229.7855	-0.000169
230.4045	-0.000232
231.0236	0.000063
231.6429	-0.000380
232.2623	0.000507
232.8818	0.000697
233.5015	0.000992
234.1213	-0.000697
234.7413	-0.000380
235.3613	0.000549
235.9815	0.000507
236.6018	-0.000950
237.2223	0.000887
237.8429	-0.000401
238.4636	0.000844
239.0845	-0.000676
239.7055	0.001773
240.3266	-0.000338
240.9478	-0.000317
241.5692	-0.000211
242.1907	0.000422
242.8124	0.000211
243.4341	0.000296
244.0560	0.000042
244.6781	0.000464
245.3002	0.000042
245.9225	0.000739
246.5449	0.000021
247.1675	-0.000781
247.7902	0.000317
248.4130	-0.000169
249.0359	0.000929
249.6590	0.001794
250.2822	-0.001309
250.9056	0.001056
251.5290	0.000253
252.1526	0.000148
252.7763	-0.000190
253.4002	-0.000253
254.0242	-0.000549
254.6483	0.000718
255.2725	0.000190
255.8969	0.000106
256.5214	-0.000549
257.1460	0.000971
257.7708	-0.001140
258.3957	0.000654
259.0207	-0.000148
259.6459	0.002048
260.2711	-0.000338
260.8965	0.000042
261.5221	-0.000296
262.1477	0.000042
262.7735	0.000401
263.3995	-0.001161
264.0255	0.000084
264.6517	0.000866
265.2780	-0.001330
265.9044	-0.000570
266.5310	0.000296
267.1577	0.000232
267.7845	-0.000464
268.4114	0.001140
269.0385	-0.000486
269.6657	0.000422
270.2931	0.001583
270.9205	0.000676
271.5481	0.000338
272.1758	0.001098
272.8037	0.000929
273.4316	0.001372
274.0597	0.000464
274.6880	-0.000359
275.3163	-0.000887
275.9448	0.000000
276.5734	-0.000232
277.2022	-0.000338
277.8310	-0.000612
278.4600	0.000380
279.0891	-0.000106
279.7184	0.000528
280.3477	-0.001393
280.9772	0.000486
281.6069	-0.000084
282.2366	0.000169
282.8665	0.001182
283.4965	0.000106
284.1266	0.000380
284.7569	0.000633
285.3873	0.000802
286.0178	-0.000127
286.6484	-0.000697
287.2792	0.000760
287.9101	0.000127
288.5411	0.000908
289.1723	-0.000443
289.8035	0.001203
290.4349	-0.000127
291.0665	-0.000591
291.6981	-0.000549
292.3299	0.001520
292.9618	-0.000148
293.5938	0.001647
294.2260	-0.000338
294.8582	-0.000401
295.4906	0.000274
296.1232	-0.001203
296.7558	0.000169
297.3886	-0.000169
298.0215	0.000169
298.6545	0.000190
299.2877	0.001562
299.9210	-0.001098
300.5544	-0.001034
301.1879	0.000802
301.8215	-0.000866
302.4553	-0.000950
303.0892	0.001583
303.7233	0.001499
304.3574	0.000084
304.9917	0.000000
305.6261	-0.001161
306.2606	0.000042
306.8953	-0.001140
307.5301	0.000528
308.1650	-0.000253
308.8000	-0.000887
309.4351	-0.001056
310.0704	0.000802
310.7058	-0.000992
311.3413	-0.000296
311.9770	-0.001562
312.6127	0.001414
313.2486	0.001077
313.8846	0.000359
314.5208	0.000127
315.1570	0.001351
315.7934	-0.000253
316.4299	-0.000486
317.0666	0.000676
317.7033	0.000844
318.3402	0.000549
318.9772	-0.000443
319.6143	-0.000866
320.2516	-0.001267
320.8890	-0.000612
321.5265	0.000317
322.1641	-0.001604
322.8018	-0.000422
323.4397	-0.000739
324.0777	0.000633
324.7158	-0.000633
325.3540	0.001752
325.9924	0.000612
326.6308	0.000063
327.2694	0.000781
327.9082	0.001351
328.5470	0.000549
329.1860	0.000992
329.8251	0.000190
330.4643	0.001267
331.1036	-0.001034
331.7431	0.001098
332.3826	0.000507
333.0223	-0.000296
333.6622	-0.000211
334.3021	0.001351
334.9422	-0.000380
335.5823	0.000253
336.2227	0.000549
336.8631	-0.001034
337.5036	-0.000338
338.1443	0.000739
338.7851	0.000190
339.4260	0.000739
340.0670	-0.000908
340.7082	0.001161
341.3495	0.000169
341.9909	0.000063
342.6324	0.000338
343.2740	0.001351
343.9158	-0.000401
344.5577	-0.000908
345.1997	-0.001668
345.8418	0.001541
346.4840	-0.000063
347.1264	0.000612
347.7689	-0.000274
348.4115	0.000950
349.0542	-0.001330
349.6971	0.000253
350.3400	-0.000338
350.9831	0.001203
351.6263	0.000211
352.2696	-0.000591
352.9131	-0.000253
353.5566	0.001773
354.2003	0.000274
354.8441	0.001203
355.4881	-0.000380
356.1321	-0.000697
356.7763	0.000549
357.4206	-0.000127
358.0650	0.000992
358.7095	0.000591
359.3541	-0.000232
359.9989	0.000633
360.6438	0.001056
361.2888	0.000486
361.9339	0.000443
362.5791	-0.000148
363.2245	-0.000232
363.8699	0.000296
364.5155	0.000042
365.1612	0.000802
365.8071	-0.000676
366.4530	0.000127
367.0991	-0.000401
367.7453	0.000106
368.3916	-0.000739
369.0380	-0.000211
369.6845	0.000042
370.3312	-0.000823
370.9780	0.000443
371.6249	0.000654
372.2719	-0.000676
372.9190	0.001478
373.5663	-0.000929
374.2136	0.000570
374.8611	0.001499
375.5087	0.001098
376.1564	-0.001562
376.8043	0.001182
377.4522	-0.000106
378.1003	0.000802
378.7485	0.000591
379.3968	0.000781
380.0452	0.000823
380.6938	0.001436
381.3424	0.000464
381.9912	-0.000528
382.6401	-0.000169
383.2891	0.000844
383.9382	0.000570
384.5875	0.000274
385.2368	0.001161
385.8863	0.000507
386.5359	0.000000
387.1856	0.001203
387.8355	-0.000106
388.4854	0.002196
389.1355	0.002470
389.7856	0.002512
390.4359	0.003526
391.0863	0.004581
391.7369	0.005637
392.3875	0.006375
393.0383	0.007748
393.6891	0.008191
394.3401	0.008677
394.9912	0.009943
395.6425	0.011801
396.2938	0.011147
396.9453	0.012920
397.5968	0.014208
398.2485	0.015284
398.9003	0.018303
399.5522	0.017311
400.2043	0.018113
400.8564	0.017121
401.5087	0.020034
402.1610	0.021301
402.8135	0.021955
403.4661	0.020794
404.1189	0.023750
404.7717	0.024404
405.4246	0.027845
406.0777	0.025143
406.7309	0.025797
407.3842	0.025080
408.0376	0.025417
408.6911	0.025692
409.3448	0.026705
409.9985	0.026114
410.6524	0.027486
411.3064	0.025882
411.9605	0.027655
412.6147	0.027909
413.2690	0.030442
413.9234	0.028943
414.5780	0.027529
415.2326	0.030020
415.8874	0.029344
416.5423	0.031012
417.1973	0.029006
417.8524	0.030252
418.5077	0.031012
419.1630	0.031054
419.8185	0.030379
420.4741	0.031645
421.1298	0.033587
421.7856	0.037197
422.4415	0.034094
423.0975	0.033777
423.7536	0.034368
424.4099	0.034347
425.0663	0.032553
425.7228	0.031561
426.3793	0.029555
427.0361	0.030294
427.6929	0.030780
428.3498	0.031307
429.0068	0.032490
429.6640	0.034453
430.3213	0.036585
430.9787	0.036670
431.6362	0.032975
432.2938	0.029724
432.9515	0.029429
433.6093	0.032236
434.2673	0.033630
434.9253	0.031772
435.5835	0.031497
436.2418	0.030294
436.9001	0.031329
437.5586	0.030653
438.2173	0.030294
438.8760	0.031265
439.5348	0.030104
440.1938	0.029809
440.8528	0.029619
441.5120	0.034558
442.1713	0.035403
442.8307	0.033292
443.4902	0.029703
444.1498	0.031793
444.8095	0.031835
445.4694	0.030189
446.1293	0.028626
446.7894	0.032426
447.4496	0.029386
448.1098	0.029935
448.7702	0.028711
449.4307	0.027550
450.0914	0.025819
450.7521	0.027170
451.4129	0.024594
452.0739	0.026705
452.7349	0.021934
453.3961	0.022842
454.0574	0.022842
454.7188	0.022356
455.3803	0.022251
456.0419	0.020203
456.7036	0.021111
457.3654	0.018704
458.0274	0.021216
458.6894	0.019211
459.3516	0.020435
460.0138	0.019781
460.6762	0.019084
461.3387	0.018029
462.0013	0.017501
462.6640	0.014630
463.3268	0.017142
463.9897	0.017163
464.6528	0.017438
465.3159	0.017248
465.9792	0.017332
466.6425	0.015326
467.3060	0.014925
467.9696	0.012350
468.6333	0.014271
469.2970	0.010767
469.9610	0.011083
470.6250	0.011041
471.2891	0.010619
471.9533	0.009605
472.6177	0.009035
473.2821	0.008634
473.9467	0.011147
474.6113	0.008782
475.2761	0.011273
475.9410	0.010007
476.6060	0.009985
477.2711	0.008444
477.9363	0.007727
478.6016	0.006587
479.2670	0.008698
479.9325	0.008001
480.5982	0.007537
481.2639	0.007621
481.9298	0.006777
482.5957	0.006819
483.2618	0.008613
483.9280	0.006122
484.5943	0.007030
485.2606	0.007368
485.9271	0.019612
486.5937	0.012540
487.2605	0.010239
487.9273	0.006101
488.5942	0.005573
489.2612	0.005637
489.9284	0.005109
490.5956	0.004349
491.2630	0.004687
491.9304	0.005594
492.5980	0.005594
493.2657	0.004518
493.9334	0.004919
494.6013	0.003694
495.2693	0.002301
495.9374	0.002343
496.6056	0.004708
497.2739	0.004159
497.9423	0.003357
498.6109	0.003188
499.2795	0.004391
499.9482	0.003293
500.6171	0.002913
501.2860	0.002871
501.9551	0.002428
502.6242	0.002048
503.2935	0.004581
503.9628	0.002470
504.6323	0.002470
505.3019	0.003568
505.9716	0.002977
506.6414	0.004307
507.3113	0.003568
507.9813	0.001900
508.6514	0.001351
509.3216	0.002533
509.9919	0.002934
510.6623	0.002723
511.3329	0.003906
512.0035	0.003758
512.6742	0.003167
513.3451	0.002681
514.0160	0.004264
514.6871	0.001267
515.3582	0.003504
516.0295	0.002871
516.7008	0.001879
517.3723	0.001858
518.0439	0.002512
518.7155	0.003293
519.3873	0.002681
520.0592	0.002702
520.7312	0.003167
521.4033	0.003420
522.0755	0.002554
522.7478	0.003737
523.4202	0.003737
524.0927	0.002977
524.7653	0.002829
525.4380	0.003694
526.1108	0.004286
526.7837	0.004180
527.4568	0.004096
528.1299	0.004222
528.8031	0.002618
529.4765	0.005214
530.1499	0.004898
530.8234	0.006375
531.4971	0.003441
532.1708	0.005257
532.8447	0.006608
533.5186	0.007642
534.1927	0.007452
534.8668	0.008212
535.5411	0.006692
536.2155	0.008444
536.8899	0.009078
537.5645	0.007093
538.2392	0.007304
538.9139	0.008254
539.5888	0.009078
540.2638	0.011358
540.9389	0.011569
541.6140	0.011041
542.2893	0.012688
542.9647	0.012477
543.6402	0.012941
544.3158	0.015031
544.9915	0.014250
545.6673	0.014250
546.3432	0.014883
547.0192	0.015833
547.6953	0.016382
548.3715	0.021322
549.0478	0.017691
549.7242	0.016382
550.4007	0.019105
551.0773	0.017670
551.7540	0.018493
552.4308	0.023602
553.1077	0.023053
553.7847	0.023306
554.4618	0.022652
555.1390	0.020773
555.8163	0.023053
556.4937	0.027465
557.1712	0.025185
557.8488	0.025206
558.5266	0.026241
559.2044	0.024826
559.8823	0.026283
560.5603	0.031540
561.2384	0.034200
561.9166	0.034917
562.5949	0.032954
563.2733	0.035213
563.9519	0.035846
564.6305	0.039287
565.3092	0.042961
565.9880	0.040385
566.6669	0.043066
567.3459	0.048977
568.0250	0.055120
568.7043	0.065233
569.3836	0.076569
570.0630	0.102620
570.7425	0.103612
571.4221	0.126137
572.1018	0.142498
572.7816	0.122654
573.4615	0.143174
574.1415	0.163187
574.8216	0.172180
575.5018	0.177690
576.1821	0.160865
576.8626	0.187169
577.5431	0.200553
578.2237	0.246174
578.9044	0.206422
579.5851	0.204184
580.2660	0.215922
580.9470	0.209610
581.6281	0.321349
582.3093	0.311512
582.9906	0.241930
583.6720	0.198822
584.3535	0.201756
585.0351	0.227068
585.7167	0.237075
586.3985	0.210011
587.0804	0.216196
587.7624	0.232050
588.4445	0.204438
589.1266	0.180054
589.8089	0.167662
590.4913	0.151871
591.1737	0.135046
591.8563	0.135869
592.5389	0.154426
593.2217	0.209610
593.9046	0.196669
594.5875	0.173806
595.2705	0.204121
595.9537	0.175558
596.6369	0.148705
597.3203	0.149317
598.0037	0.149993
598.6872	0.158606
599.3709	0.185733
600.0546	0.184657
600.7384	0.185459
601.4223	0.190694
602.1064	0.171842
602.7905	0.173806
603.4747	0.193143
604.1590	0.177922
604.8434	0.160295
605.5279	0.165382
606.2125	0.175875
606.8972	0.158374
607.5819	0.163461
608.2668	0.150879
608.9518	0.145876
609.6369	0.131732
610.3220	0.151639
611.0073	0.139311
611.6927	0.139606
612.3781	0.128671
613.0637	0.131922
613.7493	0.126855
614.4351	0.129621
615.1209	0.124913
615.8068	0.131732
616.4929	0.116321
617.1790	0.111529
617.8652	0.116173
618.5515	0.105174
619.2379	0.092402
619.9244	0.094450
620.6110	0.097997
621.2977	0.075324
621.9845	0.083430
622.6714	0.085921
623.3584	0.089067
624.0454	0.087124
624.7326	0.091199
625.4199	0.085119
626.1072	0.076654
626.7947	0.069560
627.4822	0.071714
628.1698	0.064388
628.8576	0.059891
629.5454	0.062847
630.2333	0.061559
630.9213	0.057759
631.6094	0.053748
632.2976	0.053220
632.9859	0.046359
633.6743	0.044438
634.3628	0.041082
635.0514	0.042559
635.7400	0.041736
636.4288	0.045388
637.1177	0.046001
637.8066	0.041018
638.4957	0.042982
639.1848	0.044628
639.8740	0.038465
640.5633	0.038518
641.2528	0.036093
641.9423	0.031040
642.6319	0.029183
643.3216	0.028525
644.0113	0.029840
644.7012	0.027589
645.3912	0.028221
646.0812	0.026033
646.7714	0.023291
647.4616	0.024949
648.1520	0.029470
648.8424	0.034284
649.5329	0.032403
650.2236	0.028534
650.9143	0.029388
651.6051	0.028471
652.2960	0.030106
652.9870	0.033247
653.6780	0.032487
654.3692	0.035178
655.0605	0.066821
655.7518	0.957741
656.4433	1.000000
657.1348	0.869225
657.8264	0.543894
658.5181	0.416564
659.2099	0.331649
659.9018	0.099243
660.5938	0.029834
661.2859	0.025896
661.9781	0.021194
662.6704	0.022742
663.3627	0.022970
664.0552	0.023609
664.7477	0.021246
665.4403	0.023025
666.1330	0.023941
666.8259	0.021646
667.5188	0.019699
668.2117	0.020187
668.9048	0.022145
669.5980	0.019506
670.2913	0.022356
670.9846	0.020836
671.6781	0.031941
672.3716	0.034812
673.0652	0.031835
673.7589	0.028901
674.4527	0.028732
675.1466	0.026431
675.8406	0.026262
676.5347	0.023750
677.2288	0.024299
677.9231	0.027212
678.6174	0.028162
679.3119	0.034622
680.0064	0.034305
680.7010	0.034368
681.3957	0.034748
682.0905	0.033144
682.7854	0.031540
683.4803	0.032300
684.1754	0.034791
684.8705	0.038295
685.5658	0.046127
686.2611	0.044713
686.9565	0.044185
687.6520	0.041124
688.3476	0.040702
689.0433	0.038886
689.7390	0.036416
690.4349	0.034622
691.1308	0.037493
691.8269	0.036564
692.5230	0.036965
693.2192	0.039287
693.9155	0.038295
694.6119	0.033186
695.3083	0.035487
696.0049	0.029492
696.7016	0.035171
697.3983	0.040512
698.0951	0.036078
698.7920	0.038717
699.4890	0.035994
700.1861	0.032384
700.8833	0.030759
701.5806	0.027317
702.2779	0.029745
702.9753	0.031877
703.6729	0.028584
704.3705	0.027191
705.0682	0.024953
705.7660	0.025460
706.4638	0.029471
707.1618	0.037113
707.8599	0.037282
708.5580	0.036142
709.2562	0.036311
709.9545	0.034643
710.6529	0.036838
711.3514	0.033186
712.0500	0.029682
712.7486	0.029217
713.4474	0.032891
714.1462	0.033693
714.8451	0.034833
715.5441	0.034010
716.2432	0.029640
716.9424	0.028457
717.6416	0.025692
718.3410	0.030020
719.0404	0.029365
719.7399	0.028985
720.4395	0.028289
721.1392	0.028521
721.8390	0.030632
722.5388	0.028204
723.2388	0.027191
723.9388	0.027149
724.6389	0.027951
725.3391	0.031962
726.0394	0.033123
726.7398	0.035846
727.4403	0.031561
728.1408	0.034770
728.8414	0.033102
729.5421	0.037240
730.2429	0.037788
730.9438	0.041588
731.6448	0.043531
732.3458	0.042222
733.0470	0.041567
733.7482	0.045726
734.4495	0.051743
735.1509	0.047457
735.8524	0.050877
736.5539	0.048133
737.2556	0.048787
737.9573	0.042707
738.6591	0.042391
739.3610	0.046824
740.0630	0.043742
740.7651	0.039710
741.4672	0.034643
742.1695	0.035424
742.8718	0.034347
743.5742	0.033228
744.2767	0.029006
744.9792	0.030357
745.6819	0.029049
746.3846	0.028964
747.0874	0.030611
747.7903	0.034474
748.4933	0.028225
749.1964	0.031772
749.8995	0.037050
750.6028	0.040892
751.3061	0.039625
752.0095	0.039435
752.7130	0.038063
753.4166	0.037577
754.1202	0.041504
754.8239	0.038928
755.5278	0.040997
756.2317	0.045789
756.9356	0.052144
757.6397	0.058920
758.3438	0.056197
759.0481	0.051869
759.7524	0.060187
760.4568	0.063691
761.1613	0.061749
761.8658	0.052819
762.5705	0.050075
763.2752	0.049209
763.9800	0.051384
764.6849	0.057527
765.3898	0.055163
766.0949	0.050328
766.8000	0.042285
767.5052	0.039942
768.2105	0.044354
768.9159	0.047605
769.6214	0.043995
770.3269	0.044206
771.0325	0.047119
771.7382	0.046043
772.4440	0.041652
773.1499	0.039836
773.8558	0.039435
774.5618	0.034031
775.2679	0.028626
775.9741	0.026853
776.6804	0.025523
777.3868	0.025122
778.0932	0.024826
778.7997	0.029534
779.5063	0.033988
780.2130	0.029682
780.9197	0.029429
781.6265	0.037197
782.3335	0.034917
783.0405	0.032236
783.7475	0.034748
784.4547	0.030547
785.1619	0.031434
785.8692	0.029323
786.5766	0.029049
787.2841	0.026747
787.9917	0.031329
788.6993	0.029872
789.4070	0.028225
790.1148	0.026536
790.8227	0.024679
791.5306	0.024531
792.2387	0.022209
792.9468	0.023813
793.6550	0.026684
794.3632	0.032152
795.0716	0.033186
795.7800	0.029407
796.4885	0.022990
797.1971	0.021512
797.9058	0.024024
798.6145	0.022420
799.3233	0.021892
800.0322	0.022019
800.7412	0.019612
801.4503	0.017881
802.1594	0.017860
802.8686	0.016931
803.5779	0.017670
804.2873	0.016150
804.9968	0.017459
805.7063	0.017733
806.4159	0.024383
807.1256	0.023475
807.8354	0.023475
808.5452	0.023222
809.2551	0.021470
809.9651	0.019971
810.6752	0.019570
811.3853	0.018071
812.0956	0.015833
812.8059	0.015031
813.5163	0.017902
814.2267	0.019865
814.9373	0.018282
815.6479	0.014292
816.3586	0.014841
817.0694	0.014524
817.7802	0.015538
818.4912	0.013595
819.2022	0.012983
819.9133	0.013363
820.6244	0.016952
821.3357	0.014862
822.0470	0.013891
822.7584	0.012962
823.4698	0.010851
824.1814	0.012878
824.8930	0.011210
825.6047	0.013891
826.3165	0.013110
827.0283	0.013300
827.7402	0.013954
828.4522	0.010893
829.1643	0.011294
829.8765	0.011294
830.5887	0.008719
831.3010	0.008698
832.0134	0.007494
832.7259	0.008128
833.4384	0.009500
834.1510	0.009880
834.8637	0.008993
835.5765	0.010133
836.2893	0.007262
837.0022	0.008339
837.7152	0.006333
838.4283	0.007220
839.1414	0.005953
839.8546	0.007347
840.5679	0.007684
841.2813	0.007389
841.9947	0.006059
842.7082	0.005953
843.4218	0.005341
844.1355	0.006164
844.8492	0.003990
845.5631	0.004940
846.2770	0.004138
846.9909	0.004370
847.7050	0.004243
848.4191	0.004011
849.1333	0.003969
849.8475	0.003821
850.5619	0.004792
851.2763	0.004264
851.9908	0.006164
852.7053	0.007895
853.4200	0.013870
854.1347	0.014165
854.8495	0.013532
855.5643	0.014566
856.2792	0.014292
856.9942	0.010513
857.7093	0.010682
858.4245	0.009774
859.1397	0.009057
859.8550	0.006734
860.5704	0.007093
861.2858	0.006608
862.0013	0.006587
862.7169	0.006861
863.4326	0.007727
864.1483	0.005995
864.8642	0.006143
865.5800	0.006122
866.2960	0.005489
867.0120	0.005447
867.7281	0.004982
868.4443	0.004982
869.1606	0.004286
869.8769	0.005024
870.5933	0.004074
871.3097	0.006608
872.0263	0.002787
872.7429	0.004117
873.4596	0.005742
874.1763	0.004581
874.8932	0.005299
875.6101	0.006122
876.3270	0.005341
877.0441	0.004011
877.7612	0.006798
878.4784	0.006777
879.1957	0.006101
879.9130	0.006967
880.6304	0.009183
881.3479	0.007093
882.0654	0.008698
882.7831	0.005151
883.5007	0.007705
884.2185	0.006544
884.9363	0.005637
885.6542	0.005995
886.3722	0.006629
887.0903	0.006861
887.8084	0.005679
888.5266	0.005278
889.2448	0.006608
889.9632	0.004011
890.6816	0.004560
891.4001	0.005109
892.1186	0.005489
892.8372	0.004855
893.5559	0.005700
894.2747	0.003589
894.9935	0.003209
895.7124	0.004518
896.4314	0.004771
897.1504	0.003019
897.8695	0.004433
898.5887	0.004159
899.3079	0.004476
900.0272	0.003737
900.7466	0.005848
901.4661	0.003547
902.1856	0.002322
902.9052	0.005447
903.6249	0.003251
904.3446	0.005700
905.0644	0.005067
905.7843	0.006017
906.5043	0.003631
907.2243	0.003842
907.9444	0.003040
908.6645	0.003927
909.3847	0.003589
910.1050	0.003082
910.8254	0.003589
911.5458	0.003673
912.2663	0.003631
912.9869	0.005024
913.7075	0.003906
914.4283	0.001583
915.1490	0.003863
915.8699	0.003061
916.5908	0.003884
917.3118	0.005763
918.0328	0.004919
918.7539	0.003990
919.4751	0.004581
920.1964	0.002512
920.9177	0.004307
921.6391	0.002744
922.3606	0.004011
923.0821	0.004201
923.8037	0.002090
924.5254	0.003462
925.2471	0.004117
925.9689	0.001626
926.6908	0.002660
927.4127	0.002386
928.1347	0.003504
928.8568	0.002618
929.5789	0.003842
930.3011	0.002153
931.0234	0.002554
931.7457	0.001731
932.4681	0.001541
933.1906	0.002428
933.9131	0.001752
934.6358	0.002153
935.3584	0.001689
936.0812	0.001098
936.8040	0.001879
937.5269	0.001900
938.2498	0.000612
938.9728	0.002618
939.6959	-0.000844
940.4190	0.001246
941.1422	0.001119
941.8655	0.001520
942.5889	0.001182
943.3123	0.002533
944.0357	0.000591
944.7593	0.001457
945.4829	0.000380
946.2066	0.000443
946.9303	0.001478
947.6541	0.001794
948.3780	0.000380
949.1019	-0.000127
949.8259	0.000992
950.5500	0.001161
951.2741	0.000422
951.9983	0.000971
952.7226	0.001330
953.4469	0.002069
954.1713	0.001436
954.8958	0.001583
955.6203	-0.001013
956.3449	0.001478
957.0696	0.001330
957.7943	0.000127
958.5191	-0.000486
959.2439	-0.000802
959.9688	0.000359
960.6938	0.000633
961.4189	-0.000296
962.1440	0.000317
962.8692	0.000570
963.5944	0.000528
964.3197	0.000654
965.0451	0.000232
965.7705	0.002618
966.4960	0.001963
967.2216	0.000549
967.9472	0.000507
968.6729	0.001731
969.3987	0.001478
970.1245	0.000760
970.8504	0.000718
971.5763	0.000549
972.3023	0.000781
973.0284	0.000338
973.7545	0.001077
974.4807	0.002386
975.2070	0.000802
975.9333	-0.000486
976.6597	0.000422
977.3862	0.000549
978.1127	0.000781
978.8393	0.000464
979.5659	0.000063
980.2926	0.000380
981.0194	0.000084
981.7462	-0.001393
982.4731	0.000654
983.2001	0.000380
983.9271	0.000528
984.6542	-0.000211
985.3814	0.000169
986.1086	-0.000401
986.8358	0.000127
987.5632	0.000844
988.2906	0.000106
989.0180	0.000253
989.7456	0.000612
990.4732	-0.001309
991.2008	0.001436
991.9285	0.000464
992.6563	0.000127
993.3841	-0.000401
994.1120	-0.000591
994.8400	0.001034
995.5680	0.000549
996.2961	0.000443
997.0242	-0.000760
997.7524	0.000676
998.4807	0.001203
999.2090	0.001013
999.9374	0.000380
1000.67	0.001034
1001.39	0.000211
1002.12	-0.000127
1002.85	-0.000338
1003.58	0.000084
1004.31	0.000422
1005.04	-0.000464
1005.77	-0.001077
1006.5	-0.001013
1007.22	-0.000338
1007.95	0.003188
1008.68	-0.000338
1009.41	-0.000443
1010.14	0.000253
1010.87	-0.000718
1011.6	-0.000697
1012.33	-0.000507
1013.06	-0.001436
1013.79	-0.000148
1014.52	0.000950
1015.25	0.001414
1015.98	-0.000781
1016.71	-0.000148
1017.44	-0.000844
1018.17	0.000908
1018.9	0.001330
1019.63	0.000760
1020.36	0.000042
1021.09	0.001267
1021.82	-0.000866
1022.55	-0.000591
1023.03	-0.001457