File: Auto_Polymerization/Spectra/spectrum_2025-06-19_10-42-12.txt
# Wavelength (nm)	Intensity (a.u.)
197.7802	0.000579
198.3922	0.001634
199.0044	0.001085
199.6168	0.000410
200.2292	0.000346
200.8418	0.000769
201.4546	0.000283
202.0674	-0.001448
202.6805	0.000346
203.2936	0.000368
203.9069	0.000937
204.5203	0.000663
205.1338	0.001782
205.7475	0.000114
206.3614	0.000895
206.9753	-0.000857
207.5894	0.001972
208.2036	0.000009
208.8180	0.000346
209.4325	0.000684
210.0471	0.000684
210.6618	0.001296
211.2767	0.000959
211.8918	0.000072
212.5069	0.001592
213.1222	0.000558
213.7376	0.000536
214.3532	-0.000751
214.9689	0.000473
215.5847	-0.000055
216.2007	0.000726
216.8168	-0.001532
217.4330	0.001085
218.0494	0.002183
218.6659	0.000705
219.2825	0.000135
219.8992	-0.000223
220.5161	0.000600
221.1332	-0.000540
221.7503	0.000832
222.3676	0.000536
222.9850	-0.000477
223.6026	-0.000287
224.2203	-0.000097
224.8381	-0.000329
225.4561	0.000262
226.0742	0.000600
226.6924	0.001043
227.3107	0.000157
227.9292	0.000241
228.5478	0.000937
229.1666	0.000832
229.7855	0.001360
230.4045	0.000135
231.0236	0.000579
231.6429	0.000621
232.2623	0.000726
232.8818	-0.001025
233.5015	0.000558
234.1213	0.000494
234.7413	0.001296
235.3613	0.000832
235.9815	0.000748
236.6018	0.000114
237.2223	0.000241
237.8429	0.000600
238.4636	0.000853
239.0845	0.001106
239.7055	-0.000160
240.3266	0.000811
240.9478	0.001634
241.5692	-0.000097
242.1907	-0.000287
242.8124	-0.000667
243.4341	0.000410
244.0560	-0.000456
244.6781	0.001655
245.3002	0.000157
245.9225	0.000304
246.5449	-0.000667
247.1675	0.001043
247.7902	0.000684
248.4130	0.000389
249.0359	0.000895
249.6590	0.000663
250.2822	0.000452
250.9056	0.000642
251.5290	0.000220
252.1526	0.000621
252.7763	0.000009
253.4002	0.000389
254.0242	0.000494
254.6483	0.000558
255.2725	0.001191
255.8969	0.001697
256.5214	-0.000181
257.1460	0.001043
257.7708	-0.000772
258.3957	-0.000329
259.0207	0.000832
259.6459	0.000874
260.2711	0.000368
260.8965	-0.000139
261.5221	-0.000456
262.1477	0.000030
262.7735	0.000346
263.3995	-0.000139
264.0255	0.001170
264.6517	-0.000266
265.2780	0.001043
265.9044	0.000705
266.5310	-0.000287
267.1577	0.002162
267.7845	-0.000202
268.4114	0.000832
269.0385	0.000431
269.6657	0.001423
270.2931	0.000705
270.9205	0.001001
271.5481	-0.001363
272.1758	0.000980
272.8037	-0.000118
273.4316	0.002457
274.0597	-0.000118
274.6880	0.001782
275.3163	0.000684
275.9448	0.001043
276.5734	-0.000350
277.2022	0.000705
277.8310	-0.000624
278.4600	0.001149
279.0891	0.000199
279.7184	0.001212
280.3477	-0.000160
280.9772	0.000114
281.6069	-0.000624
282.2366	0.001402
282.8665	0.000600
283.4965	0.001149
284.1266	-0.000097
284.7569	0.000853
285.3873	-0.000160
286.0178	0.000895
286.6484	-0.000920
287.2792	0.000895
287.9101	0.000114
288.5411	0.000579
289.1723	0.000494
289.8035	0.000515
290.4349	0.000199
291.0665	-0.000076
291.6981	0.000410
292.3299	-0.000244
292.9618	0.000579
293.5938	0.001275
294.2260	-0.000012
294.8582	0.001127
295.4906	0.000389
296.1232	-0.000223
296.7558	-0.000413
297.3886	0.001191
298.0215	0.001127
298.6545	0.000178
299.2877	0.000684
299.9210	0.001528
300.5544	0.001908
301.1879	0.001571
301.8215	0.000220
302.4553	-0.000434
303.0892	0.000515
303.7233	0.000515
304.3574	-0.000244
304.9917	0.001507
305.6261	-0.000350
306.2606	0.000769
306.8953	0.001001
307.5301	0.001486
308.1650	0.001170
308.8000	0.001149
309.4351	-0.000012
310.0704	0.000959
310.7058	-0.000371
311.3413	-0.000540
311.9770	-0.000709
312.6127	-0.000329
313.2486	0.000874
313.8846	0.001655
314.5208	-0.000012
315.1570	0.000980
315.7934	0.000621
316.4299	0.000853
317.0666	0.001381
317.7033	0.000748
318.3402	-0.000371
318.9772	0.000093
319.6143	-0.001448
320.2516	0.001170
320.8890	0.000030
321.5265	0.000621
322.1641	-0.000456
322.8018	-0.000371
323.4397	-0.000076
324.0777	-0.000118
324.7158	-0.000076
325.3540	0.000389
325.9924	0.000431
326.6308	-0.000667
327.2694	-0.001279
327.9082	-0.000371
328.5470	0.000663
329.1860	0.001381
329.8251	0.000114
330.4643	0.000135
331.1036	0.000515
331.7431	0.001064
332.3826	0.000030
333.0223	0.001486
333.6622	0.000072
334.3021	0.001085
334.9422	-0.000582
335.5823	0.001233
336.2227	0.000072
336.8631	0.001444
337.5036	-0.000160
338.1443	0.002162
338.7851	0.002162
339.4260	-0.000033
340.0670	0.001254
340.7082	0.001275
341.3495	0.000431
341.9909	0.001022
342.6324	0.000431
343.2740	0.000600
343.9158	0.001022
344.5577	0.000748
345.1997	-0.000371
345.8418	0.002267
346.4840	-0.001047
347.1264	0.001465
347.7689	0.000368
348.4115	0.001613
349.0542	0.001170
349.6971	0.001929
350.3400	0.000494
350.9831	0.000262
351.6263	0.002373
352.2696	0.000726
352.9131	0.000241
353.5566	0.000389
354.2003	0.000114
354.8441	-0.000498
355.4881	-0.000645
356.1321	0.001149
356.7763	-0.000371
357.4206	0.001782
358.0650	0.000811
358.7095	0.002563
359.3541	-0.000434
359.9989	0.000494
360.6438	0.000536
361.2888	-0.000055
361.9339	-0.000308
362.5791	0.001360
363.2245	0.000304
363.8699	-0.000371
364.5155	-0.000118
365.1612	-0.001215
365.8071	-0.000709
366.4530	0.001296
367.0991	-0.000097
367.7453	0.001761
368.3916	0.000536
369.0380	0.001170
369.6845	0.001212
370.3312	0.001064
370.9780	0.000811
371.6249	0.000895
372.2719	-0.000477
372.9190	0.001022
373.5663	0.001170
374.2136	0.001254
374.8611	0.000009
375.5087	0.000494
376.1564	-0.000308
376.8043	0.000959
377.4522	0.002014
378.1003	0.001254
378.7485	0.000473
379.3968	0.001001
380.0452	-0.000033
380.6938	0.000009
381.3424	0.000726
381.9912	0.000705
382.6401	0.000304
383.2891	0.001803
383.9382	0.001824
384.5875	0.000937
385.2368	0.001022
385.8863	0.000811
386.5359	0.000452
387.1856	0.001043
387.8355	0.002563
388.4854	0.002542
389.1355	0.002858
389.7856	0.002457
390.4359	0.003660
391.0863	0.005391
391.7369	0.006277
392.3875	0.006151
393.0383	0.006889
393.6891	0.007987
394.3401	0.009359
394.9912	0.010224
395.6425	0.011216
396.2938	0.010942
396.9453	0.014129
397.5968	0.015100
398.2485	0.017379
398.9003	0.019342
399.5522	0.018519
400.2043	0.018456
400.8564	0.017379
401.5087	0.021432
402.1610	0.018308
402.8135	0.021537
403.4661	0.020693
404.1189	0.020503
404.7717	0.023648
405.4246	0.025336
406.0777	0.027426
406.7309	0.024154
407.3842	0.024935
408.0376	0.027172
408.6911	0.027848
409.3448	0.026877
409.9985	0.027595
410.6524	0.027975
411.3064	0.026117
411.9605	0.028692
412.6147	0.029515
413.2690	0.028967
413.9234	0.029410
414.5780	0.028354
415.2326	0.030360
415.8874	0.028840
416.5423	0.031352
417.1973	0.028777
417.8524	0.028777
418.5077	0.029368
419.1630	0.030782
419.8185	0.030528
420.4741	0.033314
421.1298	0.034560
421.7856	0.036734
422.4415	0.035573
423.0975	0.034750
423.7536	0.035531
424.4099	0.033462
425.0663	0.032365
425.7228	0.031837
426.3793	0.028755
427.0361	0.031626
427.6929	0.034243
428.3498	0.030592
429.0068	0.031288
429.6640	0.036544
430.3213	0.036396
430.9787	0.035341
431.6362	0.031246
432.2938	0.030233
432.9515	0.028038
433.6093	0.030549
434.2673	0.033357
434.9253	0.031710
435.5835	0.030824
436.2418	0.030402
436.9001	0.031584
437.5586	0.031753
438.2173	0.028228
438.8760	0.031774
439.5348	0.030486
440.1938	0.030908
440.8528	0.027637
441.5120	0.033715
442.1713	0.034412
442.8307	0.032322
443.4902	0.033251
444.1498	0.035045
444.8095	0.032090
445.4694	0.031900
446.1293	0.031563
446.7894	0.030423
447.4496	0.028692
448.1098	0.027763
448.7702	0.028080
449.4307	0.030613
450.0914	0.028481
450.7521	0.026223
451.4129	0.025273
452.0739	0.024534
452.7349	0.027362
453.3961	0.022149
454.0574	0.021769
454.7188	0.022719
455.3803	0.022761
456.0419	0.021284
456.7036	0.021748
457.3654	0.022255
458.0274	0.023120
458.6894	0.020967
459.3516	0.020672
460.0138	0.021284
460.6762	0.020482
461.3387	0.021009
462.0013	0.018561
462.6640	0.016936
463.3268	0.017189
463.9897	0.015648
464.6528	0.018287
465.3159	0.018878
465.9792	0.019785
466.6425	0.014931
467.3060	0.013876
467.9696	0.014572
468.6333	0.013411
469.2970	0.012314
469.9610	0.009654
470.6250	0.011301
471.2891	0.011280
471.9533	0.009865
472.6177	0.010815
473.2821	0.011195
473.9467	0.011195
474.6113	0.009443
475.2761	0.010182
475.9410	0.009190
476.6060	0.009401
477.2711	0.009760
477.9363	0.009908
478.6016	0.008852
479.2670	0.008304
479.9325	0.007354
480.5982	0.007755
481.2639	0.009253
481.9298	0.007143
482.5957	0.007565
483.2618	0.007860
483.9280	0.006805
484.5943	0.007396
485.2606	0.006383
485.9271	0.019321
486.5937	0.014657
487.2605	0.011596
487.9273	0.006467
488.5942	0.005560
489.2612	0.006277
489.9284	0.006763
490.5956	0.005074
491.2630	0.006467
491.9304	0.003956
492.5980	0.004082
493.2657	0.003386
493.9334	0.004293
494.6013	0.005074
495.2693	0.004673
495.9374	0.004336
496.6056	0.002774
497.2739	0.004547
497.9423	0.002943
498.6109	0.003154
499.2795	0.003935
499.9482	0.004652
500.6171	0.003217
501.2860	0.004040
501.9551	0.003048
502.6242	0.004040
503.2935	0.004779
503.9628	0.002753
504.6323	0.003196
505.3019	0.001761
505.9716	0.003111
506.6414	0.003280
507.3113	0.001951
507.9813	0.002288
508.6514	0.004040
509.3216	0.003322
509.9919	0.003069
510.6623	0.002921
511.3329	0.002985
512.0035	0.003534
512.6742	0.002879
513.3451	0.003259
514.0160	0.003449
514.6871	0.003745
515.3582	0.004969
516.0295	0.002457
516.7008	0.003217
517.3723	0.002014
518.0439	0.002753
518.7155	0.003322
519.3873	0.004209
520.0592	0.004969
520.7312	0.003449
521.4033	0.004631
522.0755	0.003723
522.7478	0.004251
523.4202	0.002900
524.0927	0.003428
524.7653	0.003977
525.4380	0.004800
526.1108	0.003935
526.7837	0.004652
527.4568	0.004146
528.1299	0.004441
528.8031	0.005306
529.4765	0.004863
530.1499	0.005243
530.8234	0.006636
531.4971	0.004504
532.1708	0.006721
532.8447	0.005982
533.5186	0.006742
534.1927	0.006636
534.8668	0.007544
535.5411	0.007565
536.2155	0.008852
536.8899	0.008599
537.5645	0.007839
538.2392	0.007839
538.9139	0.008451
539.5888	0.011617
540.2638	0.011744
540.9389	0.011491
541.6140	0.011512
542.2893	0.011575
542.9647	0.012398
543.6402	0.013200
544.3158	0.015121
544.9915	0.016915
545.6673	0.015079
546.3432	0.014129
547.0192	0.014635
547.6953	0.016261
548.3715	0.019405
549.0478	0.020482
549.7242	0.017759
550.4007	0.018962
551.0773	0.019300
551.7540	0.019722
552.4308	0.021938
553.1077	0.022804
553.7847	0.021326
554.4618	0.024724
555.1390	0.023057
555.8163	0.025779
556.4937	0.026159
557.1712	0.024070
557.8488	0.029241
558.5266	0.025273
559.2044	0.027088
559.8823	0.029452
560.5603	0.031352
561.2384	0.036586
561.9166	0.037747
562.5949	0.035235
563.2733	0.036501
563.9519	0.037472
564.6305	0.041039
565.3092	0.040870
565.9880	0.041546
566.6669	0.043910
567.3459	0.052394
568.0250	0.058114
568.7043	0.065565
569.3836	0.077975
570.0630	0.101614
570.7425	0.105371
571.4221	0.125274
572.1018	0.140027
572.7816	0.119174
573.4615	0.140808
574.1415	0.158137
574.8216	0.171687
575.5018	0.175697
576.1821	0.158179
576.8626	0.180340
577.5431	0.201278
578.2237	0.243596
578.9044	0.206470
579.5851	0.207377
580.2660	0.207567
580.9470	0.208158
581.6281	0.320296
582.3093	0.306809
582.9906	0.240831
583.6720	0.202164
584.3535	0.199336
585.0351	0.229644
585.7167	0.237200
586.3985	0.211071
587.0804	0.216770
587.7624	0.231016
588.4445	0.207082
589.1266	0.175971
589.8089	0.165102
590.4913	0.154211
591.1737	0.132999
591.8563	0.131902
592.5389	0.154380
593.2217	0.202333
593.9046	0.195874
594.5875	0.174874
595.2705	0.205837
595.9537	0.173966
596.6369	0.147098
597.3203	0.152016
598.0037	0.151361
598.6872	0.157862
599.3709	0.190134
600.0546	0.185047
600.7384	0.186250
601.4223	0.188445
602.1064	0.170610
602.7905	0.172763
603.4747	0.190767
604.1590	0.174620
604.8434	0.160965
605.5279	0.165967
606.2125	0.172911
606.8972	0.156469
607.5819	0.164278
608.2668	0.149694
608.9518	0.145557
609.6369	0.133020
610.3220	0.155351
611.0073	0.139880
611.6927	0.138170
612.3781	0.131205
613.0637	0.130804
613.7493	0.128588
614.4351	0.133105
615.1209	0.126287
615.8068	0.133168
616.4929	0.115439
617.1790	0.111112
617.8652	0.111977
618.5515	0.105244
619.2379	0.093636
619.9244	0.095599
620.6110	0.096992
621.2977	0.078144
621.9845	0.082133
622.6714	0.088866
623.3584	0.089942
624.0454	0.087114
624.7326	0.094121
625.4199	0.084497
626.1072	0.077511
626.7947	0.071137
627.4822	0.070715
628.1698	0.062969
628.8576	0.060816
629.5454	0.066325
630.2333	0.061280
630.9213	0.057798
631.6094	0.053091
632.2976	0.053365
632.9859	0.045007
633.6743	0.048785
634.3628	0.043551
635.0514	0.043889
635.7400	0.041715
636.4288	0.046421
637.1177	0.047667
637.8066	0.043678
638.4957	0.044395
639.1848	0.042812
639.8740	0.039146
640.5633	0.037773
641.2528	0.034678
641.9423	0.031996
642.6319	0.031924
643.3216	0.031399
644.0113	0.031751
644.7012	0.028842
645.3912	0.026500
646.0812	0.024766
646.7714	0.026206
647.4616	0.024176
648.1520	0.030658
648.8424	0.033480
649.5329	0.033710
650.2236	0.031714
650.9143	0.029964
651.6051	0.027881
652.2960	0.032496
652.9870	0.031374
653.6780	0.034354
654.3692	0.034269
655.0605	0.069503
655.7518	0.964509
656.4433	1.000000
657.1348	0.871618
657.8264	0.530976
658.5181	0.413008
659.2099	0.331542
659.9018	0.097686
660.5938	0.032219
661.2859	0.024355
661.9781	0.022956
662.6704	0.022300
663.3627	0.023353
664.0552	0.020631
664.7477	0.024503
665.4403	0.024717
666.1330	0.023188
666.8259	0.020639
667.5188	0.022381
668.2117	0.020233
668.9048	0.021790
669.5980	0.021326
670.2913	0.022846
670.9846	0.020630
671.6781	0.030718
672.3716	0.035172
673.0652	0.033610
673.7589	0.030148
674.4527	0.029663
675.1466	0.026096
675.8406	0.028502
676.5347	0.026497
677.2288	0.025568
677.9231	0.028164
678.6174	0.031204
679.3119	0.030824
680.0064	0.036670
680.7010	0.038127
681.3957	0.035932
682.0905	0.034644
682.7854	0.032365
683.4803	0.033061
684.1754	0.033547
684.8705	0.039857
685.5658	0.044269
686.2611	0.045725
686.9565	0.042095
687.6520	0.043065
688.3476	0.041250
689.0433	0.038232
689.7390	0.035721
690.4349	0.034032
691.1308	0.035974
691.8269	0.038781
692.5230	0.037958
693.2192	0.040680
693.9155	0.038401
694.6119	0.032977
695.3083	0.036881
696.0049	0.029220
696.7016	0.037831
697.3983	0.039076
698.0951	0.038042
698.7920	0.039140
699.4890	0.034159
700.1861	0.029579
700.8833	0.030908
701.5806	0.026539
702.2779	0.028354
702.9753	0.029811
703.6729	0.029283
704.3705	0.028819
705.0682	0.025991
705.7660	0.026265
706.4638	0.031098
707.1618	0.037916
707.8599	0.038507
708.5580	0.037599
709.2562	0.037852
709.9545	0.033779
710.6529	0.035193
711.3514	0.032491
712.0500	0.027552
712.7486	0.030444
713.4474	0.032512
714.1462	0.034032
714.8451	0.032871
715.5441	0.036143
716.2432	0.031626
716.9424	0.028418
717.6416	0.027025
718.3410	0.030148
719.0404	0.028734
719.7399	0.030739
720.4395	0.027616
721.1392	0.030212
721.8390	0.031077
722.5388	0.028439
723.2388	0.027151
723.9388	0.027763
724.6389	0.029769
725.3391	0.034011
726.0394	0.031710
726.7398	0.034433
727.4403	0.031921
728.1408	0.035657
728.8414	0.036523
729.5421	0.036396
730.2429	0.034454
730.9438	0.043171
731.6448	0.043108
732.3458	0.041483
733.0470	0.045936
733.7482	0.045261
734.4495	0.051360
735.1509	0.048384
735.8524	0.050136
736.5539	0.047835
737.2556	0.049524
737.9573	0.043213
738.6591	0.040934
739.3610	0.047667
740.0630	0.043044
740.7651	0.041504
741.4672	0.033800
742.1695	0.033694
742.8718	0.036311
743.5742	0.032322
744.2767	0.030254
744.9792	0.030233
745.6819	0.029093
746.3846	0.029726
747.0874	0.030170
747.7903	0.031520
748.4933	0.029895
749.1964	0.030908
749.8995	0.037282
750.6028	0.043466
751.3061	0.039013
752.0095	0.040364
752.7130	0.038971
753.4166	0.039583
754.1202	0.041250
754.8239	0.040533
755.5278	0.044754
756.2317	0.045788
756.9356	0.051276
757.6397	0.058790
758.3438	0.055961
759.0481	0.053196
759.7524	0.059444
760.4568	0.062800
761.1613	0.063750
761.8658	0.051635
762.5705	0.050073
763.2752	0.049798
763.9800	0.052458
764.6849	0.061090
765.3898	0.056806
766.0949	0.051044
766.8000	0.042538
767.5052	0.039119
768.2105	0.044796
768.9159	0.050811
769.6214	0.047561
770.3269	0.044859
771.0325	0.047688
771.7382	0.045704
772.4440	0.040680
773.1499	0.040469
773.8558	0.037747
774.5618	0.034665
775.2679	0.030887
775.9741	0.026476
776.6804	0.025611
777.3868	0.026434
778.0932	0.024070
778.7997	0.028249
779.5063	0.031964
780.2130	0.030106
780.9197	0.030887
781.6265	0.035193
782.3335	0.036185
783.0405	0.032449
783.7475	0.036691
784.4547	0.030296
785.1619	0.031288
785.8692	0.029368
786.5766	0.028713
787.2841	0.030001
787.9917	0.030402
788.6993	0.031584
789.4070	0.030360
790.1148	0.025189
790.8227	0.024260
791.5306	0.026033
792.2387	0.022972
792.9468	0.022592
793.6550	0.024935
794.3632	0.031162
795.0716	0.033314
795.7800	0.031900
796.4885	0.023690
797.1971	0.021115
797.9058	0.024260
798.6145	0.023120
799.3233	0.022318
800.0322	0.020503
800.7412	0.021474
801.4503	0.018814
802.1594	0.019004
802.8686	0.016704
803.5779	0.019152
804.2873	0.017717
804.9968	0.018012
805.7063	0.018709
806.4159	0.024133
807.1256	0.023310
807.8354	0.020946
808.5452	0.023795
809.2551	0.024218
809.9651	0.020165
810.6752	0.020017
811.3853	0.020630
812.0956	0.017210
812.8059	0.014382
813.5163	0.017949
814.2267	0.017611
814.9373	0.016725
815.6479	0.014023
816.3586	0.014171
817.0694	0.014910
817.7802	0.016155
818.4912	0.014403
819.2022	0.013221
819.9133	0.011870
820.6244	0.016303
821.3357	0.015480
822.0470	0.015100
822.7584	0.013327
823.4698	0.014171
824.1814	0.011237
824.8930	0.011364
825.6047	0.014614
826.3165	0.011786
827.0283	0.013074
827.7402	0.014635
828.4522	0.011807
829.1643	0.012884
829.8765	0.013242
830.5887	0.010942
831.3010	0.008557
832.0134	0.007734
832.7259	0.008768
833.4384	0.010076
834.1510	0.011153
834.8637	0.010161
835.5765	0.010773
836.2893	0.008451
837.0022	0.007776
837.7152	0.008557
838.4283	0.006763
839.1414	0.006552
839.8546	0.008156
840.5679	0.006953
841.2813	0.008008
841.9947	0.005623
842.7082	0.007438
843.4218	0.005539
844.1355	0.006425
844.8492	0.004230
845.5631	0.007185
846.2770	0.005116
846.9909	0.005370
847.7050	0.005475
848.4191	0.005644
849.1333	0.005560
849.8475	0.005201
850.5619	0.003766
851.2763	0.004336
851.9908	0.006657
852.7053	0.010140
853.4200	0.013327
854.1347	0.014002
854.8495	0.012778
855.5643	0.011491
856.2792	0.012609
856.9942	0.013876
857.7093	0.011870
858.4245	0.010203
859.1397	0.008536
859.8550	0.009760
860.5704	0.006235
861.2858	0.005032
862.0013	0.006087
862.7169	0.005412
863.4326	0.006742
864.1483	0.006467
864.8642	0.006974
865.5800	0.004293
866.2960	0.004715
867.0120	0.004969
867.7281	0.004948
868.4443	0.004905
869.1606	0.006087
869.8769	0.005454
870.5933	0.006320
871.3097	0.007501
872.0263	0.004019
872.7429	0.006488
873.4596	0.005370
874.1763	0.005897
874.8932	0.005306
875.6101	0.007248
876.3270	0.007375
877.0441	0.004040
877.7612	0.006995
878.4784	0.007058
879.1957	0.008156
879.9130	0.007354
880.6304	0.009528
881.3479	0.008705
882.0654	0.005750
882.7831	0.007628
883.5007	0.006488
884.2185	0.006298
884.9363	0.005074
885.6542	0.007016
886.3722	0.007903
887.0903	0.005644
887.8084	0.005116
888.5266	0.005855
889.2448	0.005961
889.9632	0.005665
890.6816	0.004462
891.4001	0.005581
892.1186	0.006510
892.8372	0.006087
893.5559	0.005328
894.2747	0.004694
894.9935	0.005707
895.7124	0.004251
896.4314	0.006615
897.1504	0.006805
897.8695	0.005644
898.5887	0.006277
899.3079	0.005623
900.0272	0.004842
900.7466	0.005138
901.4661	0.005285
902.1856	0.005813
902.9052	0.005138
903.6249	0.004082
904.3446	0.005391
905.0644	0.006024
905.7843	0.006214
906.5043	0.004336
907.2243	0.004082
907.9444	0.005053
908.6645	0.003745
909.3847	0.003935
910.1050	0.002520
910.8254	0.004589
911.5458	0.003787
912.2663	0.003871
912.9869	0.003322
913.7075	0.004715
914.4283	0.003597
915.1490	0.003006
915.8699	0.003491
916.5908	0.004272
917.3118	0.002879
918.0328	0.006045
918.7539	0.003470
919.4751	0.003808
920.1964	0.005095
920.9177	0.003470
921.6391	0.003449
922.3606	0.005138
923.0821	0.003449
923.8037	0.005095
924.5254	0.002774
925.2471	0.003512
925.9689	0.001908
926.6908	0.002964
927.4127	0.002668
928.1347	0.001381
928.8568	0.002964
929.5789	0.003111
930.3011	0.001233
931.0234	0.002330
931.7457	0.004610
932.4681	0.003344
933.1906	0.002288
933.9131	0.001740
934.6358	0.001064
935.3584	0.001486
936.0812	0.002056
936.8040	0.002921
937.5269	0.002309
938.2498	0.002605
938.9728	0.002499
939.6959	0.001634
940.4190	0.000790
941.1422	0.001782
941.8655	0.002879
942.5889	0.001191
943.3123	0.000262
944.0357	0.001972
944.7593	0.000895
945.4829	0.000895
946.2066	0.001149
946.9303	0.002605
947.6541	0.001001
948.3780	0.001338
949.1019	-0.000139
949.8259	0.001507
950.5500	0.001972
951.2741	0.002921
951.9983	0.000072
952.7226	0.002141
953.4469	0.002774
954.1713	0.002647
954.8958	0.001106
955.6203	0.002098
956.3449	0.001634
957.0696	0.001571
957.7943	0.001191
958.5191	0.001338
959.2439	0.000980
959.9688	0.000494
960.6938	0.000769
961.4189	0.000558
962.1440	0.001064
962.8692	0.000114
963.5944	0.000009
964.3197	-0.001068
965.0451	0.000705
965.7705	0.000853
966.4960	0.001001
967.2216	0.000346
967.9472	0.001317
968.6729	0.000769
969.3987	0.001106
970.1245	-0.000076
970.8504	0.000114
971.5763	0.000515
972.3023	0.001149
973.0284	-0.000371
973.7545	0.001233
974.4807	-0.000962
975.2070	0.001803
975.9333	0.001001
976.6597	0.002077
977.3862	0.001149
978.1127	0.002183
978.8393	0.001043
979.5659	0.001423
980.2926	-0.000118
981.0194	0.000853
981.7462	0.001233
982.4731	0.001149
983.2001	0.000980
983.9271	0.000346
984.6542	-0.000519
985.3814	0.000853
986.1086	-0.000329
986.8358	-0.000223
987.5632	0.000874
988.2906	0.000410
989.0180	0.000494
989.7456	0.000157
990.4732	0.000790
991.2008	0.001001
991.9285	0.000262
992.6563	0.000051
993.3841	0.001022
994.1120	0.000009
994.8400	0.000114
995.5680	0.001338
996.2961	-0.000118
997.0242	-0.000582
997.7524	0.000811
998.4807	0.002647
999.2090	-0.000835
999.9374	0.000220
1000.67	0.001085
1001.39	0.000494
1002.12	0.001655
1002.85	-0.000540
1003.58	0.001064
1004.31	-0.000624
1005.04	0.000241
1005.77	0.000748
1006.5	0.000916
1007.22	0.000705
1007.95	0.001022
1008.68	0.001043
1009.41	0.000874
1010.14	-0.000667
1010.87	-0.000392
1011.6	0.000030
1012.33	0.000072
1013.06	0.001001
1013.79	0.001085
1014.52	-0.000582
1015.25	0.000663
1015.98	0.000431
1016.71	-0.000561
1017.44	-0.000878
1018.17	0.002014
1018.9	-0.000055
1019.63	0.000114
1020.36	-0.000561
1021.09	0.000304
1021.82	0.000135
1022.55	0.000072
1023.03	-0.000941