File: Auto_Polymerization/Spectra/spectrum_2025-06-19_11-01-43.txt
# Wavelength (nm)	Intensity (a.u.)
197.7802	0.002118
198.3922	0.000091
199.0044	-0.000204
199.6168	-0.000457
200.2292	-0.000479
200.8418	-0.001302
201.4546	0.000640
202.0674	0.000873
202.6805	0.000218
203.2936	-0.000056
203.9069	-0.000647
204.5203	-0.000120
205.1338	-0.000035
205.7475	0.000408
206.3614	-0.000014
206.9753	-0.001091
207.5894	-0.000985
208.2036	-0.000521
208.8180	0.001126
209.4325	0.000514
210.0471	0.000514
210.6618	-0.001028
211.2767	-0.000120
211.8918	0.000113
212.5069	-0.000289
213.1222	-0.001598
213.7376	-0.001070
214.3532	-0.000077
214.9689	0.000514
215.5847	-0.001112
216.2007	0.001105
216.8168	-0.000669
217.4330	0.000472
218.0494	-0.001028
218.6659	0.000577
219.2825	-0.000289
219.8992	-0.000479
220.5161	0.000978
221.1332	0.000894
221.7503	0.000472
222.3676	-0.000141
222.9850	-0.000141
223.6026	0.001971
224.2203	-0.000943
224.8381	0.000662
225.4561	-0.000690
226.0742	0.000493
226.6924	0.000830
227.3107	0.000028
227.9292	-0.001112
228.5478	-0.000922
229.1666	-0.000669
229.7855	0.000577
230.4045	-0.000373
231.0236	0.000598
231.6429	0.000746
232.2623	0.000556
232.8818	-0.002294
233.5015	0.000218
234.1213	-0.000795
234.7413	-0.000310
235.3613	-0.000225
235.9815	0.000049
236.6018	0.000830
237.2223	-0.000352
237.8429	0.000007
238.4636	0.000450
239.0845	-0.000479
239.7055	-0.000816
240.3266	0.000007
240.9478	-0.000331
241.5692	0.000091
242.1907	0.000429
242.8124	0.001633
243.4341	-0.000457
244.0560	0.000662
244.6781	0.000472
245.3002	0.000387
245.9225	-0.000289
246.5449	0.000598
247.1675	0.000577
247.7902	-0.001112
248.4130	-0.000373
249.0359	0.000070
249.6590	0.000767
250.2822	-0.001344
250.9056	0.001907
251.5290	0.000429
252.1526	0.000197
252.7763	-0.000394
253.4002	-0.000457
254.0242	0.000704
254.6483	0.000134
255.2725	-0.001028
255.8969	0.000239
256.5214	-0.000711
257.1460	-0.000922
257.7708	-0.001239
258.3957	0.000514
259.0207	0.000662
259.6459	0.000725
260.2711	-0.001028
260.8965	0.000809
261.5221	-0.001365
262.1477	0.001569
262.7735	0.000894
263.3995	-0.000943
264.0255	0.000345
264.6517	-0.000056
265.2780	-0.000225
265.9044	0.000113
266.5310	-0.000457
267.1577	0.002076
267.7845	-0.000500
268.4114	0.001042
269.0385	-0.000436
269.6657	0.000493
270.2931	-0.001154
270.9205	-0.000563
271.5481	-0.000795
272.1758	-0.000563
272.8037	-0.000183
273.4316	0.000239
274.0597	-0.000711
274.6880	0.001021
275.3163	-0.001661
275.9448	-0.000141
276.5734	0.000556
277.2022	0.000873
277.8310	-0.000563
278.4600	0.001316
279.0891	-0.000626
279.7184	-0.000310
280.3477	0.000028
280.9772	0.000894
281.6069	-0.000204
282.2366	-0.001049
282.8665	0.000472
283.4965	0.000577
284.1266	0.000873
284.7569	0.000366
285.3873	-0.000647
286.0178	0.000155
286.6484	-0.000774
287.2792	0.000915
287.9101	-0.000014
288.5411	-0.000204
289.1723	-0.000436
289.8035	-0.000647
290.4349	0.000387
291.0665	0.000091
291.6981	-0.000732
292.3299	0.000345
292.9618	-0.001218
293.5938	0.000408
294.2260	-0.000880
294.8582	-0.000077
295.4906	0.001021
296.1232	0.000830
296.7558	-0.001112
297.3886	-0.000246
298.0215	0.000176
298.6545	0.000830
299.2877	0.000134
299.9210	0.000387
300.5544	0.000514
301.1879	-0.001323
301.8215	0.000366
302.4553	0.001358
303.0892	0.000598
303.7233	-0.000415
304.3574	-0.000436
304.9917	-0.000626
305.6261	-0.001788
306.2606	0.001591
306.8953	-0.000647
307.5301	0.000028
308.1650	0.001105
308.8000	0.000746
309.4351	-0.000479
310.0704	0.001802
310.7058	-0.000563
311.3413	0.001464
311.9770	-0.000436
312.6127	-0.000774
313.2486	0.000303
313.8846	0.001358
314.5208	-0.000964
315.1570	0.000619
315.7934	-0.001112
316.4299	-0.000056
317.0666	0.000535
317.7033	-0.000035
318.3402	0.000176
318.9772	0.001063
319.6143	0.000324
320.2516	0.000873
320.8890	0.000218
321.5265	0.000429
322.1641	-0.000479
322.8018	0.001232
323.4397	-0.000436
324.0777	-0.000563
324.7158	-0.000225
325.3540	0.001527
325.9924	-0.000267
326.6308	0.000282
327.2694	-0.000690
327.9082	0.000493
328.5470	-0.000816
329.1860	-0.000584
329.8251	0.000809
330.4643	0.000282
331.1036	-0.001534
331.7431	-0.000246
332.3826	-0.000584
333.0223	0.000936
333.6622	0.000704
334.3021	0.001232
334.9422	-0.001260
335.5823	0.000176
336.2227	0.000070
336.8631	0.001612
337.5036	-0.000014
338.1443	-0.001196
338.7851	-0.000035
339.4260	-0.000774
340.0670	-0.000626
340.7082	0.001738
341.3495	0.000345
341.9909	0.001738
342.6324	0.000176
343.2740	0.001168
343.9158	0.000894
344.5577	0.001844
345.1997	-0.000816
345.8418	-0.000310
346.4840	0.000028
347.1264	0.000218
347.7689	0.000704
348.4115	0.000155
349.0542	-0.002231
349.6971	0.001211
350.3400	0.000915
350.9831	0.000429
351.6263	-0.000711
352.2696	-0.000669
352.9131	0.000619
353.5566	-0.000563
354.2003	-0.000521
354.8441	0.000345
355.4881	-0.000373
356.1321	-0.000056
356.7763	-0.000352
357.4206	0.001021
358.0650	-0.000394
358.7095	0.001021
359.3541	0.001147
359.9989	-0.000563
360.6438	-0.000267
361.2888	0.000873
361.9339	-0.001513
362.5791	-0.000267
363.2245	-0.000647
363.8699	0.000176
364.5155	0.000197
365.1612	0.000366
365.8071	-0.001576
366.4530	0.000704
367.0991	0.000239
367.7453	0.000577
368.3916	0.000725
369.0380	0.000091
369.6845	-0.000795
370.3312	0.000324
370.9780	0.000324
371.6249	0.000091
372.2719	0.000408
372.9190	0.000197
373.5663	-0.000521
374.2136	0.001464
374.8611	-0.001555
375.5087	0.000387
376.1564	0.000282
376.8043	0.000028
377.4522	0.000113
378.1003	0.000767
378.7485	0.000091
379.3968	0.000873
380.0452	-0.001893
380.6938	0.000324
381.3424	0.000070
381.9912	0.000999
382.6401	0.000049
383.2891	0.000429
383.9382	0.001717
384.5875	0.001717
385.2368	0.000662
385.8863	0.000852
386.5359	0.000366
387.1856	0.002013
387.8355	0.001105
388.4854	0.002203
389.1355	0.001738
389.7856	0.002731
390.4359	0.003385
391.0863	0.004547
391.7369	0.003237
392.3875	0.005750
393.0383	0.006637
393.6891	0.007144
394.3401	0.006806
394.9912	0.008579
395.6425	0.006742
396.2938	0.009994
396.9453	0.009994
397.5968	0.011599
398.2485	0.013815
398.9003	0.013900
399.5522	0.014111
400.2043	0.015652
400.8564	0.014259
401.5087	0.017426
402.1610	0.016391
402.8135	0.017468
403.4661	0.016560
404.1189	0.019791
404.7717	0.020551
405.4246	0.020572
406.0777	0.021416
406.7309	0.018967
407.3842	0.019812
408.0376	0.021311
408.6911	0.022493
409.3448	0.021902
409.9985	0.023971
410.6524	0.022219
411.3064	0.022894
411.9605	0.022282
412.6147	0.025111
413.2690	0.026632
413.9234	0.025618
414.5780	0.024077
415.2326	0.024858
415.8874	0.023507
416.5423	0.027307
417.1973	0.025196
417.8524	0.026146
418.5077	0.025491
419.1630	0.026610
419.8185	0.028616
420.4741	0.029672
421.1298	0.029904
421.7856	0.031973
422.4415	0.030622
423.0975	0.030453
423.7536	0.030685
424.4099	0.029313
425.0663	0.030559
425.7228	0.028680
426.3793	0.027666
427.0361	0.025639
427.6929	0.029419
428.3498	0.029440
429.0068	0.030474
429.6640	0.031129
430.3213	0.032227
430.9787	0.033747
431.6362	0.030770
432.2938	0.027729
432.9515	0.025175
433.6093	0.030495
434.2673	0.031952
434.9253	0.030200
435.5835	0.031044
436.2418	0.028384
436.9001	0.029968
437.5586	0.031636
438.2173	0.028447
438.8760	0.029735
439.5348	0.030115
440.1938	0.028067
440.8528	0.027920
441.5120	0.033451
442.1713	0.031762
442.8307	0.032565
443.4902	0.030918
444.1498	0.032902
444.8095	0.031741
445.4694	0.031234
446.1293	0.030411
446.7894	0.030559
447.4496	0.025428
448.1098	0.029123
448.7702	0.028743
449.4307	0.025998
450.0914	0.025534
450.7521	0.027181
451.4129	0.023106
452.0739	0.025132
452.7349	0.025893
453.3961	0.022683
454.0574	0.022535
454.7188	0.021015
455.3803	0.021543
456.0419	0.022177
456.7036	0.019601
457.3654	0.021501
458.0274	0.021987
458.6894	0.021416
459.3516	0.019516
460.0138	0.020086
460.6762	0.019664
461.3387	0.019242
462.0013	0.017405
462.6640	0.016222
463.3268	0.016560
463.9897	0.016391
464.6528	0.018186
465.3159	0.018123
465.9792	0.018735
466.6425	0.015589
467.3060	0.012950
467.9696	0.013098
468.6333	0.013076
469.2970	0.011007
469.9610	0.011324
470.6250	0.010944
471.2891	0.010965
471.9533	0.010099
472.6177	0.010648
473.2821	0.008833
473.9467	0.009825
474.6113	0.010691
475.2761	0.009783
475.9410	0.009445
476.6060	0.007629
477.2711	0.007629
477.9363	0.009234
478.6016	0.006975
479.2670	0.008938
479.9325	0.008347
480.5982	0.007334
481.2639	0.009128
481.9298	0.007418
482.5957	0.007418
483.2618	0.006953
483.9280	0.007186
484.5943	0.005856
485.2606	0.006405
485.9271	0.021649
486.5937	0.015082
487.2605	0.010036
487.9273	0.008030
488.5942	0.006193
489.2612	0.004610
489.9284	0.004547
490.5956	0.004568
491.2630	0.004969
491.9304	0.003449
492.5980	0.005117
493.2657	0.002541
493.9334	0.004884
494.6013	0.004927
495.2693	0.004884
495.9374	0.002836
496.6056	0.006067
497.2739	0.003998
497.9423	0.002562
498.6109	0.003596
499.2795	0.003364
499.9482	0.003153
500.6171	0.003069
501.2860	0.002963
501.9551	0.003343
502.6242	0.003596
503.2935	0.003723
503.9628	0.003618
504.6323	0.003005
505.3019	0.002604
505.9716	0.003871
506.6414	0.003364
507.3113	0.003406
507.9813	0.002308
508.6514	0.002752
509.3216	0.003554
509.9919	0.002857
510.6623	0.001886
511.3329	0.002921
512.0035	0.002076
512.6742	0.002963
513.3451	0.003786
514.0160	0.003111
514.6871	0.002330
515.3582	0.002330
516.0295	0.004145
516.7008	0.003808
517.3723	0.002815
518.0439	0.003723
518.7155	0.003491
519.3873	0.004019
520.0592	0.001992
520.7312	0.001971
521.4033	0.005011
522.0755	0.003259
522.7478	0.001950
523.4202	0.003681
524.0927	0.003533
524.7653	0.003343
525.4380	0.002435
526.1108	0.003998
526.7837	0.004293
527.4568	0.003660
528.1299	0.004251
528.8031	0.004589
529.4765	0.003829
530.1499	0.005391
530.8234	0.006975
531.4971	0.005834
532.1708	0.006637
532.8447	0.004166
533.5186	0.005940
534.1927	0.007481
534.8668	0.009234
535.5411	0.007228
536.2155	0.006890
536.8899	0.007101
537.5645	0.008537
538.2392	0.009044
538.9139	0.010754
539.5888	0.010184
540.2638	0.010374
540.9389	0.010838
541.6140	0.012549
542.2893	0.011979
542.9647	0.011007
543.6402	0.013119
544.3158	0.015758
544.9915	0.014956
545.6673	0.015230
546.3432	0.014744
547.0192	0.016054
547.6953	0.016771
548.3715	0.019537
549.0478	0.021754
549.7242	0.016708
550.4007	0.017257
551.0773	0.019221
551.7540	0.019347
552.4308	0.023211
553.1077	0.022198
553.7847	0.024752
554.4618	0.022493
555.1390	0.025618
555.8163	0.025681
556.4937	0.027159
557.1712	0.025639
557.8488	0.024605
558.5266	0.025259
559.2044	0.028236
559.8823	0.028236
560.5603	0.033008
561.2384	0.035647
561.9166	0.036027
562.5949	0.032290
563.2733	0.034972
563.9519	0.039237
564.6305	0.038540
565.3092	0.039680
565.9880	0.040672
566.6669	0.043079
567.3459	0.050511
568.0250	0.054713
568.7043	0.064214
569.3836	0.076671
570.0630	0.102451
570.7425	0.107688
571.4221	0.124916
572.1018	0.138915
572.7816	0.124389
573.4615	0.136846
574.1415	0.158044
574.8216	0.174682
575.5018	0.175801
576.1821	0.163344
576.8626	0.184669
577.5431	0.198203
578.2237	0.243027
578.9044	0.205339
579.5851	0.201285
580.2660	0.215600
580.9470	0.209287
581.6281	0.319565
582.3093	0.307973
582.9906	0.240198
583.6720	0.198815
584.3535	0.199723
585.0351	0.225798
585.7167	0.236756
586.3985	0.204684
587.0804	0.216825
587.7624	0.227424
588.4445	0.204579
589.1266	0.178651
589.8089	0.167862
590.4913	0.151942
591.1737	0.133911
591.8563	0.136212
592.5389	0.154328
593.2217	0.202277
593.9046	0.196851
594.5875	0.173668
595.2705	0.198625
595.9537	0.176371
596.6369	0.144383
597.3203	0.149641
598.0037	0.146664
598.6872	0.159818
599.3709	0.187878
600.0546	0.183212
600.7384	0.182853
601.4223	0.183550
602.1064	0.168875
602.7905	0.171494
603.4747	0.189039
604.1590	0.177933
604.8434	0.158171
605.5279	0.167355
606.2125	0.177236
606.8972	0.157833
607.5819	0.161845
608.2668	0.154328
608.9518	0.143497
609.6369	0.134692
610.3220	0.155785
611.0073	0.137627
611.6927	0.138999
612.3781	0.137880
613.0637	0.129456
613.7493	0.131082
614.4351	0.126057
615.1209	0.125128
615.8068	0.132475
616.4929	0.115584
617.1790	0.111002
617.8652	0.110876
618.5515	0.103866
619.2379	0.091472
619.9244	0.093035
620.6110	0.095315
621.2977	0.077875
621.9845	0.082076
622.6714	0.086151
623.3584	0.086806
624.0454	0.085602
624.7326	0.089804
625.4199	0.084146
626.1072	0.079163
626.7947	0.070527
627.4822	0.072470
628.1698	0.064235
628.8576	0.059949
629.5454	0.062251
630.2333	0.060878
630.9213	0.055790
631.6094	0.052243
632.2976	0.049392
632.9859	0.045993
633.6743	0.044431
634.3628	0.041960
635.0514	0.042024
635.7400	0.041686
636.4288	0.048337
637.1177	0.045697
637.8066	0.041285
638.4957	0.043628
639.1848	0.039553
639.8740	0.038690
640.5633	0.035167
641.2528	0.035640
641.9423	0.032452
642.6319	0.030037
643.3216	0.031042
644.0113	0.028664
644.7012	0.026105
645.3912	0.026037
646.0812	0.024952
646.7714	0.024991
647.4616	0.026092
648.1520	0.030733
648.8424	0.033272
649.5329	0.032094
650.2236	0.033723
650.9143	0.029633
651.6051	0.029288
652.2960	0.031787
652.9870	0.032918
653.6780	0.030697
654.3692	0.033856
655.0605	0.067307
655.7518	0.959045
656.4433	1.000000
657.1348	0.874358
657.8264	0.537561
658.5181	0.412797
659.2099	0.335804
659.9018	0.102797
660.5938	0.032524
661.2859	0.024764
661.9781	0.023957
662.6704	0.022582
663.3627	0.020892
664.0552	0.022160
664.7477	0.023607
665.4403	0.024078
666.1330	0.023678
666.8259	0.019634
667.5188	0.022704
668.2117	0.020197
668.9048	0.022367
669.5980	0.021290
670.2913	0.023232
670.9846	0.021142
671.6781	0.030664
672.3716	0.034739
673.0652	0.033747
673.7589	0.031382
674.4527	0.029313
675.1466	0.025850
675.8406	0.025027
676.5347	0.023528
677.2288	0.022873
677.9231	0.029165
678.6174	0.028933
679.3119	0.032860
680.0064	0.036766
680.7010	0.035098
681.3957	0.033831
682.0905	0.034380
682.7854	0.029904
683.4803	0.030115
684.1754	0.032311
684.8705	0.038075
685.5658	0.047661
686.2611	0.043945
686.9565	0.042784
687.6520	0.044050
688.3476	0.038941
689.0433	0.036217
689.7390	0.037590
690.4349	0.034549
691.1308	0.037041
691.8269	0.038181
692.5230	0.037505
693.2192	0.039152
693.9155	0.035858
694.6119	0.031614
695.3083	0.034993
696.0049	0.030221
696.7016	0.036492
697.3983	0.038540
698.0951	0.038096
698.7920	0.038920
699.4890	0.035183
700.1861	0.032839
700.8833	0.030791
701.5806	0.028553
702.2779	0.031023
702.9753	0.029946
703.6729	0.027582
704.3705	0.027708
705.0682	0.024562
705.7660	0.025871
706.4638	0.030812
707.1618	0.038603
707.8599	0.037357
708.5580	0.036238
709.2562	0.035816
709.9545	0.035753
710.6529	0.036281
711.3514	0.035732
712.0500	0.031044
712.7486	0.030432
713.4474	0.032396
714.1462	0.034739
714.8451	0.035098
715.5441	0.033515
716.2432	0.031614
716.9424	0.027666
717.6416	0.027413
718.3410	0.028912
719.0404	0.027392
719.7399	0.029186
720.4395	0.027814
721.1392	0.031614
721.8390	0.030770
722.5388	0.028300
723.2388	0.026294
723.9388	0.027202
724.6389	0.027687
725.3391	0.030812
726.0394	0.032987
726.7398	0.033219
727.4403	0.033114
728.1408	0.035879
728.8414	0.032290
729.5421	0.037379
730.2429	0.035837
730.9438	0.044642
731.6448	0.041327
732.3458	0.041749
733.0470	0.041242
733.7482	0.045254
734.4495	0.053594
735.1509	0.047703
735.8524	0.049181
736.5539	0.049097
737.2556	0.050321
737.9573	0.043164
738.6591	0.039891
739.3610	0.045402
740.0630	0.042235
740.7651	0.039068
741.4672	0.035922
742.1695	0.034021
742.8718	0.036006
743.5742	0.032417
744.2767	0.028933
744.9792	0.029799
745.6819	0.027054
746.3846	0.027159
747.0874	0.028152
747.7903	0.031783
748.4933	0.028088
749.1964	0.030622
749.8995	0.036112
750.6028	0.040144
751.3061	0.037104
752.0095	0.039089
752.7130	0.034549
753.4166	0.037357
754.1202	0.041559
754.8239	0.040693
755.5278	0.043206
756.2317	0.045613
756.9356	0.049456
757.6397	0.060245
758.3438	0.058408
759.0481	0.054227
759.7524	0.058260
760.4568	0.063243
761.1613	0.062462
761.8658	0.052433
762.5705	0.049519
763.2752	0.048294
763.9800	0.048294
764.6849	0.056930
765.3898	0.057606
766.0949	0.050554
766.8000	0.040588
767.5052	0.036956
768.2105	0.044325
768.9159	0.049308
769.6214	0.048189
770.3269	0.045993
771.0325	0.046310
771.7382	0.043206
772.4440	0.042298
773.1499	0.039553
773.8558	0.038561
774.5618	0.032945
775.2679	0.030390
775.9741	0.027898
776.6804	0.025069
777.3868	0.024478
778.0932	0.023823
778.7997	0.026653
779.5063	0.031298
780.2130	0.029566
780.9197	0.032142
781.6265	0.035753
782.3335	0.035119
783.0405	0.031424
783.7475	0.036238
784.4547	0.032290
785.1619	0.028912
785.8692	0.029862
786.5766	0.027983
787.2841	0.026927
787.9917	0.030284
788.6993	0.030538
789.4070	0.029186
790.1148	0.029081
790.8227	0.025344
791.5306	0.026568
792.2387	0.024077
792.9468	0.022747
793.6550	0.023486
794.3632	0.029841
795.0716	0.032311
795.7800	0.026568
796.4885	0.023507
797.1971	0.021902
797.9058	0.023971
798.6145	0.022008
799.3233	0.022324
800.0322	0.020825
800.7412	0.019094
801.4503	0.019453
802.1594	0.017806
802.8686	0.017489
803.5779	0.018418
804.2873	0.017532
804.9968	0.016814
805.7063	0.016138
806.4159	0.021881
807.1256	0.021522
807.8354	0.023380
808.5452	0.022831
809.2551	0.022958
809.9651	0.019284
810.6752	0.018841
811.3853	0.019791
812.0956	0.017912
812.8059	0.014829
813.5163	0.016054
814.2267	0.018186
814.9373	0.016539
815.6479	0.015103
816.3586	0.014407
817.0694	0.014744
817.7802	0.012675
818.4912	0.013942
819.2022	0.012844
819.9133	0.012464
820.6244	0.014998
821.3357	0.016222
822.0470	0.011514
822.7584	0.014048
823.4698	0.011957
824.1814	0.011007
824.8930	0.011514
825.6047	0.012718
826.3165	0.012591
827.0283	0.013330
827.7402	0.013604
828.4522	0.013752
829.1643	0.010691
829.8765	0.011240
830.5887	0.009107
831.3010	0.007756
832.0134	0.007882
832.7259	0.009403
833.4384	0.007671
834.1510	0.010606
834.8637	0.009846
835.5765	0.009909
836.2893	0.008685
837.0022	0.007777
837.7152	0.006405
838.4283	0.006088
839.1414	0.005792
839.8546	0.007946
840.5679	0.007017
841.2813	0.006172
841.9947	0.006046
842.7082	0.007144
843.4218	0.005159
844.1355	0.006531
844.8492	0.004758
845.5631	0.006278
846.2770	0.005412
846.9909	0.005454
847.7050	0.005644
848.4191	0.004990
849.1333	0.005729
849.8475	0.004504
850.5619	0.005307
851.2763	0.005708
851.9908	0.004715
852.7053	0.008305
853.4200	0.012612
854.1347	0.013858
854.8495	0.014660
855.5643	0.011767
856.2792	0.012380
856.9942	0.010479
857.7093	0.011514
858.4245	0.009128
859.1397	0.008178
859.8550	0.010247
860.5704	0.007460
861.2858	0.006383
862.0013	0.006742
862.7169	0.004694
863.4326	0.007629
864.1483	0.006742
864.8642	0.005053
865.5800	0.005666
866.2960	0.003871
867.0120	0.005750
867.7281	0.005222
868.4443	0.005349
869.1606	0.004927
869.8769	0.004547
870.5933	0.003005
871.3097	0.005095
872.0263	0.003660
872.7429	0.005138
873.4596	0.005032
874.1763	0.005687
874.8932	0.005201
875.6101	0.005349
876.3270	0.005454
877.0441	0.004314
877.7612	0.006426
878.4784	0.006785
879.1957	0.008516
879.9130	0.007608
880.6304	0.008833
881.3479	0.008157
882.0654	0.007207
882.7831	0.007017
883.5007	0.007101
884.2185	0.005560
884.9363	0.007249
885.6542	0.006172
886.3722	0.005391
887.0903	0.004589
887.8084	0.006151
888.5266	0.004737
889.2448	0.005264
889.9632	0.004842
890.6816	0.005117
891.4001	0.003005
892.1186	0.005222
892.8372	0.004547
893.5559	0.004631
894.2747	0.003005
894.9935	0.004103
895.7124	0.005117
896.4314	0.003871
897.1504	0.005285
897.8695	0.004124
898.5887	0.005053
899.3079	0.005476
900.0272	0.003702
900.7466	0.005666
901.4661	0.004694
902.1856	0.003892
902.9052	0.004652
903.6249	0.003871
904.3446	0.003237
905.0644	0.006109
905.7843	0.004715
906.5043	0.006067
907.2243	0.004420
907.9444	0.005264
908.6645	0.004715
909.3847	0.003047
910.1050	0.004610
910.8254	0.005391
911.5458	0.003406
912.2663	0.003512
912.9869	0.003829
913.7075	0.004335
914.4283	0.003069
915.1490	0.002414
915.8699	0.003998
916.5908	0.003786
917.3118	0.002900
918.0328	0.005412
918.7539	0.003174
919.4751	0.004990
920.1964	0.004293
920.9177	0.003364
921.6391	0.003406
922.3606	0.002625
923.0821	0.003153
923.8037	0.001696
924.5254	0.003237
925.2471	0.003069
925.9689	0.001232
926.6908	0.002118
927.4127	-0.000542
928.1347	0.002330
928.8568	0.002477
929.5789	0.002984
930.3011	0.001211
931.0234	0.002477
931.7457	0.000894
932.4681	0.001253
933.1906	0.002287
933.9131	0.003237
934.6358	0.001886
935.3584	0.002963
936.0812	0.002034
936.8040	0.002182
937.5269	0.002140
938.2498	0.002203
938.9728	0.001337
939.6959	0.001696
940.4190	0.002034
941.1422	0.001464
941.8655	0.000239
942.5889	0.002076
943.3123	0.000218
944.0357	0.001548
944.7593	0.001337
945.4829	0.001612
946.2066	0.001147
946.9303	0.000429
947.6541	0.000007
948.3780	0.000662
949.1019	0.001274
949.8259	0.000239
950.5500	0.000345
951.2741	0.001274
951.9983	0.001358
952.7226	0.000493
953.4469	0.001865
954.1713	0.001295
954.8958	0.001675
955.6203	0.001147
956.3449	0.000830
957.0696	0.000577
957.7943	0.001316
958.5191	-0.000014
959.2439	0.001612
959.9688	-0.000331
960.6938	0.000028
961.4189	0.001464
962.1440	0.001464
962.8692	0.000028
963.5944	-0.000141
964.3197	0.000028
965.0451	0.001992
965.7705	0.000957
966.4960	0.002013
967.2216	0.000218
967.9472	0.000387
968.6729	-0.000669
969.3987	0.001506
970.1245	0.000197
970.8504	0.000830
971.5763	-0.000289
972.3023	0.001189
973.0284	0.000472
973.7545	0.000619
974.4807	-0.000436
975.2070	-0.000120
975.9333	0.000387
976.6597	0.000472
977.3862	-0.000436
978.1127	0.000049
978.8393	0.001211
979.5659	0.001401
980.2926	0.000049
981.0194	0.002118
981.7462	-0.000141
982.4731	0.001379
983.2001	0.000345
983.9271	0.000345
984.6542	-0.001957
985.3814	-0.000415
986.1086	0.001422
986.8358	-0.000901
987.5632	0.000767
988.2906	-0.001239
989.0180	0.000450
989.7456	-0.000099
990.4732	0.001211
991.2008	0.001168
991.9285	-0.000542
992.6563	0.000450
993.3841	-0.000056
994.1120	-0.000479
994.8400	-0.001196
995.5680	0.000894
996.2961	0.000788
997.0242	0.000450
997.7524	-0.000289
998.4807	0.001464
999.2090	-0.000394
999.9374	-0.000626
1000.67	0.001274
1001.39	-0.000985
1002.12	-0.000099
1002.85	0.000662
1003.58	0.000197
1004.31	0.001168
1005.04	0.000852
1005.77	-0.000605
1006.5	0.001358
1007.22	0.000070
1007.95	0.000493
1008.68	-0.000626
1009.41	0.000725
1010.14	-0.000985
1010.87	0.000978
1011.6	0.000640
1012.33	0.002182
1013.06	0.000915
1013.79	0.001126
1014.52	-0.000267
1015.25	-0.000056
1015.98	0.000514
1016.71	-0.000584
1017.44	0.000091
1018.17	0.000408
1018.9	-0.002041
1019.63	-0.000120
1020.36	-0.000605
1021.09	-0.000774
1021.82	-0.000943
1022.55	-0.001534
1023.03	-0.001640