File: Auto_Polymerization/Spectra/spectrum_2025-06-19_11-49-04.txt
# Wavelength (nm)	Intensity (a.u.)
197.7802	-0.000025
198.3922	-0.001376
199.0044	0.001221
199.6168	-0.000236
200.2292	0.000883
200.8418	0.000482
201.4546	-0.000806
202.0674	0.001179
202.6805	0.001073
203.2936	0.000419
203.9069	-0.000025
204.5203	-0.001101
205.1338	0.001284
205.7475	0.001031
206.3614	0.000946
206.9753	0.001031
207.5894	0.000925
208.2036	0.001558
208.8180	0.000018
209.4325	0.000060
210.0471	0.001263
210.6618	0.000208
211.2767	0.001432
211.8918	0.000398
212.5069	0.001157
213.1222	0.000208
213.7376	0.000967
214.3532	-0.000721
214.9689	0.000081
215.5847	0.001136
216.2007	0.000461
216.8168	0.000735
217.4330	0.001580
218.0494	0.000440
218.6659	0.000461
219.2825	0.001221
219.8992	0.000250
220.5161	-0.000848
221.1332	-0.000004
221.7503	0.000313
222.3676	0.001960
222.9850	0.000292
223.6026	0.000925
224.2203	0.001453
224.8381	-0.000996
225.4561	-0.000890
226.0742	0.000989
226.6924	0.001221
227.3107	-0.000911
227.9292	0.001516
228.5478	0.001115
229.1666	0.001157
229.7855	0.001432
230.4045	0.000862
231.0236	0.000123
231.6429	0.000060
232.2623	0.000482
232.8818	0.000039
233.5015	-0.000257
234.1213	-0.000215
234.7413	-0.000489
235.3613	0.001073
235.9815	0.000229
236.6018	0.000313
237.2223	0.000820
237.8429	0.001981
238.4636	0.001052
239.0845	0.000799
239.7055	0.000208
240.3266	0.000102
240.9478	0.000989
241.5692	0.000651
242.1907	0.000292
242.8124	0.000102
243.4341	0.000672
244.0560	0.000081
244.6781	0.000693
245.3002	-0.000172
245.9225	-0.000890
246.5449	0.000651
247.1675	0.000841
247.7902	0.000524
248.4130	0.000440
249.0359	0.000060
249.6590	0.000630
250.2822	-0.000257
250.9056	0.001052
251.5290	0.001305
252.1526	0.001326
252.7763	0.000186
253.4002	0.000398
254.0242	0.000165
254.6483	0.000925
255.2725	-0.000046
255.8969	0.000313
256.5214	0.000904
257.1460	-0.000869
257.7708	-0.000109
258.3957	0.000630
259.0207	-0.001734
259.6459	0.001390
260.2711	0.000989
260.8965	0.000777
261.5221	-0.000616
262.1477	0.000925
262.7735	0.001179
263.3995	0.000862
264.0255	0.000967
264.6517	0.001664
265.2780	-0.001038
265.9044	0.001706
266.5310	0.000693
267.1577	0.000313
267.7845	0.001960
268.4114	-0.000510
269.0385	0.001200
269.6657	0.002044
270.2931	0.000841
270.9205	0.001179
271.5481	0.000672
272.1758	0.001115
272.8037	-0.000785
273.4316	0.000398
274.0597	0.000123
274.6880	0.001411
275.3163	-0.000405
275.9448	0.001073
276.5734	0.000250
277.2022	0.000841
277.8310	-0.000025
278.4600	0.000398
279.0891	0.000566
279.7184	0.001052
280.3477	-0.000004
280.9772	0.000588
281.6069	-0.000067
282.2366	-0.000130
282.8665	0.000503
283.4965	-0.000088
284.1266	-0.000679
284.7569	0.001453
285.3873	0.000461
286.0178	0.000925
286.6484	0.000376
287.2792	0.001221
287.9101	0.002192
288.5411	0.001622
289.1723	0.000799
289.8035	-0.001080
290.4349	0.001136
291.0665	0.000989
291.6981	-0.000004
292.3299	0.000799
292.9618	-0.000130
293.5938	0.000018
294.2260	0.000292
294.8582	0.000735
295.4906	0.000398
296.1232	0.001643
296.7558	-0.000046
297.3886	0.000989
298.0215	-0.000130
298.6545	0.000229
299.2877	-0.000046
299.9210	0.001938
300.5544	0.000355
301.1879	-0.000510
301.8215	0.000545
302.4553	0.001474
303.0892	-0.000278
303.7233	0.001115
304.3574	-0.000067
304.9917	0.000545
305.6261	0.000883
306.2606	0.000820
306.8953	-0.000067
307.5301	0.000841
308.1650	-0.000278
308.8000	0.000334
309.4351	-0.000320
310.0704	0.000229
310.7058	-0.000426
311.3413	0.000208
311.9770	0.000989
312.6127	0.001347
313.2486	-0.000215
313.8846	0.000018
314.5208	0.000060
315.1570	0.000292
315.7934	0.000398
316.4299	0.000735
317.0666	0.000292
317.7033	0.000566
318.3402	-0.000088
318.9772	0.001917
319.6143	-0.000405
320.2516	-0.000067
320.8890	-0.000236
321.5265	0.000440
322.1641	0.001305
322.8018	0.001052
323.4397	-0.000890
324.0777	0.001010
324.7158	-0.000088
325.3540	0.001347
325.9924	-0.000215
326.6308	0.000925
327.2694	0.000039
327.9082	0.001157
328.5470	0.000018
329.1860	0.001010
329.8251	0.000039
330.4643	0.000313
331.1036	-0.000806
331.7431	0.001073
332.3826	-0.000215
333.0223	0.001031
333.6622	0.000630
334.3021	0.000123
334.9422	0.000208
335.5823	0.001326
336.2227	0.001770
336.8631	-0.000109
337.5036	-0.000046
338.1443	0.001073
338.7851	0.001200
339.4260	0.000777
340.0670	0.001474
340.7082	0.001284
341.3495	-0.000573
341.9909	0.000355
342.6324	0.000714
343.2740	0.001263
343.9158	-0.000172
344.5577	0.000524
345.1997	0.001136
345.8418	-0.000025
346.4840	-0.000320
347.1264	0.001242
347.7689	0.000292
348.4115	-0.000742
349.0542	0.000144
349.6971	0.001305
350.3400	-0.000573
350.9831	0.002677
351.6263	0.000672
352.2696	-0.000785
352.9131	-0.000848
353.5566	0.001390
354.2003	-0.001713
354.8441	0.000419
355.4881	0.001432
356.1321	-0.000299
356.7763	-0.000130
357.4206	0.001136
358.0650	0.001558
358.7095	0.000545
359.3541	0.000989
359.9989	0.000841
360.6438	0.000461
361.2888	0.000925
361.9339	-0.000004
362.5791	0.000482
363.2245	-0.000151
363.8699	0.001727
364.5155	-0.000257
365.1612	0.000440
365.8071	0.001157
366.4530	0.001474
367.0991	0.001263
367.7453	0.000862
368.3916	0.000777
369.0380	0.000081
369.6845	0.000229
370.3312	0.000756
370.9780	0.000398
371.6249	0.001390
372.2719	-0.001354
372.9190	0.001157
373.5663	-0.000341
374.2136	0.001347
374.8611	0.001136
375.5087	0.001622
376.1564	0.000292
376.8043	0.001474
377.4522	0.001643
378.1003	0.001010
378.7485	0.001960
379.3968	0.001664
380.0452	-0.000215
380.6938	0.000967
381.3424	-0.000616
381.9912	0.000081
382.6401	0.001094
383.2891	0.000144
383.9382	0.000208
384.5875	0.001052
385.2368	0.000989
385.8863	-0.000004
386.5359	-0.000172
387.1856	0.000925
387.8355	0.001558
388.4854	0.001854
389.1355	0.001558
389.7856	0.001094
390.4359	0.001390
391.0863	0.000989
391.7369	0.001833
392.3875	0.002150
393.0383	0.002508
393.6891	0.004028
394.3401	0.002846
394.9912	0.002635
395.6425	0.002171
396.2938	0.005548
396.9453	0.003247
397.5968	0.004957
398.2485	0.006624
398.9003	0.005865
399.5522	0.006033
400.2043	0.005527
400.8564	0.006434
401.5087	0.008778
402.1610	0.007511
402.8135	0.007553
403.4661	0.006899
404.1189	0.008018
404.7717	0.008778
405.4246	0.010994
406.0777	0.011522
406.7309	0.011353
407.3842	0.010128
408.0376	0.011015
408.6911	0.012345
409.3448	0.012493
409.9985	0.013316
410.6524	0.011099
411.3064	0.012577
411.9605	0.012408
412.6147	0.013400
413.2690	0.014097
413.9234	0.013421
414.5780	0.013801
415.2326	0.015321
415.8874	0.015152
416.5423	0.015997
417.1973	0.012957
417.8524	0.015237
418.5077	0.014983
419.1630	0.017136
419.8185	0.018698
420.4741	0.018867
421.1298	0.019838
421.7856	0.021759
422.4415	0.020640
423.0975	0.021485
423.7536	0.020809
424.4099	0.020387
425.0663	0.020577
425.7228	0.020556
426.3793	0.018150
427.0361	0.020324
427.6929	0.019796
428.3498	0.020387
429.0068	0.020746
429.6640	0.023574
430.3213	0.024778
430.9787	0.024123
431.6362	0.022772
432.2938	0.021063
432.9515	0.020725
433.6093	0.024588
434.2673	0.023891
434.9253	0.023406
435.5835	0.022392
436.2418	0.020408
436.9001	0.022730
437.5586	0.022012
438.2173	0.022751
438.8760	0.024398
439.5348	0.023258
440.1938	0.024102
440.8528	0.024377
441.5120	0.029738
442.1713	0.025939
442.8307	0.024841
443.4902	0.027944
444.1498	0.029147
444.8095	0.027353
445.4694	0.027395
446.1293	0.024968
446.7894	0.024693
447.4496	0.024292
448.1098	0.023997
448.7702	0.022055
449.4307	0.024144
450.0914	0.024904
450.7521	0.022836
451.4129	0.020155
452.0739	0.022392
452.7349	0.022266
453.3961	0.019479
454.0574	0.020366
454.7188	0.020049
455.3803	0.018973
456.0419	0.019205
456.7036	0.017812
457.3654	0.017200
458.0274	0.019838
458.6894	0.019226
459.3516	0.019796
460.0138	0.017938
460.6762	0.018635
461.3387	0.016187
462.0013	0.014012
462.6640	0.014477
463.3268	0.016376
463.9897	0.014899
464.6528	0.015933
465.3159	0.015764
465.9792	0.017052
466.6425	0.016714
467.3060	0.012999
467.9696	0.012493
468.6333	0.010677
469.2970	0.010065
469.9610	0.010783
470.6250	0.009200
471.2891	0.009200
471.9533	0.008778
472.6177	0.009094
473.2821	0.009326
473.9467	0.009052
474.6113	0.008503
475.2761	0.008820
475.9410	0.009770
476.6060	0.007490
477.2711	0.008250
477.9363	0.007722
478.6016	0.008566
479.2670	0.007954
479.9325	0.006266
480.5982	0.007532
481.2639	0.006540
481.9298	0.006498
482.5957	0.006646
483.2618	0.007152
483.9280	0.006202
484.5943	0.007258
485.2606	0.007321
485.9271	0.017833
486.5937	0.014055
487.2605	0.011015
487.9273	0.006160
488.5942	0.005675
489.2612	0.006055
489.9284	0.004809
490.5956	0.004218
491.2630	0.003395
491.9304	0.003796
492.5980	0.003310
493.2657	0.003796
493.9334	0.004915
494.6013	0.003838
495.2693	0.005231
495.9374	0.003437
496.6056	0.006371
497.2739	0.004176
497.9423	0.004640
498.6109	0.003374
499.2795	0.003944
499.9482	0.003353
500.6171	0.003036
501.2860	0.004514
501.9551	0.004197
502.6242	0.004239
503.2935	0.003754
503.9628	0.002361
504.6323	0.004218
505.3019	0.004303
505.9716	0.003564
506.6414	0.001664
507.3113	0.004155
507.9813	0.003332
508.6514	0.002445
509.3216	0.001981
509.9919	0.003733
510.6623	0.004049
511.3329	0.002888
512.0035	0.001601
512.6742	0.003057
513.3451	0.003374
514.0160	0.004134
514.6871	0.003078
515.3582	0.004429
516.0295	0.002656
516.7008	0.003965
517.3723	0.003310
518.0439	0.002825
518.7155	0.003163
519.3873	0.005337
520.0592	0.003690
520.7312	0.003965
521.4033	0.004176
522.0755	0.002741
522.7478	0.002783
523.4202	0.004155
524.0927	0.003923
524.7653	0.003226
525.4380	0.005632
526.1108	0.003880
526.7837	0.005569
527.4568	0.003817
528.1299	0.003859
528.8031	0.005105
529.4765	0.004809
530.1499	0.006033
530.8234	0.005886
531.4971	0.005442
532.1708	0.006667
532.8447	0.007321
533.5186	0.007258
534.1927	0.007237
534.8668	0.008672
535.5411	0.007026
536.2155	0.009390
536.8899	0.007574
537.5645	0.008566
538.2392	0.007553
538.9139	0.010656
539.5888	0.009727
540.2638	0.011289
540.9389	0.011437
541.6140	0.011268
542.2893	0.012809
542.9647	0.012366
543.6402	0.011775
544.3158	0.015004
544.9915	0.014920
545.6673	0.015384
546.3432	0.014392
547.0192	0.016292
547.6953	0.016693
548.3715	0.020556
549.0478	0.020155
549.7242	0.017749
550.4007	0.019247
551.0773	0.019057
551.7540	0.017896
552.4308	0.022836
553.1077	0.022519
553.7847	0.024820
554.4618	0.021231
555.1390	0.023617
555.8163	0.024968
556.4937	0.026994
557.1712	0.024187
557.8488	0.025812
558.5266	0.024925
559.2044	0.023469
559.8823	0.028472
560.5603	0.031406
561.2384	0.034107
561.9166	0.031638
562.5949	0.033179
563.2733	0.032271
563.9519	0.036155
564.6305	0.037759
565.3092	0.040925
565.9880	0.039933
566.6669	0.040820
567.3459	0.049812
568.0250	0.055511
568.7043	0.062181
569.3836	0.076873
570.0630	0.097453
570.7425	0.104292
571.4221	0.121348
572.1018	0.134773
572.7816	0.117738
573.4615	0.135089
574.1415	0.157823
574.8216	0.168778
575.5018	0.171543
576.1821	0.154171
576.8626	0.175237
577.5431	0.190688
578.2237	0.233834
578.9044	0.196789
579.5851	0.195501
580.2660	0.205591
580.9470	0.203016
581.6281	0.308536
582.3093	0.300494
582.9906	0.237232
583.6720	0.193601
584.3535	0.198034
585.0351	0.219987
585.7167	0.230034
586.3985	0.198984
587.0804	0.206836
587.7624	0.224166
588.4445	0.199871
589.1266	0.177116
589.8089	0.162446
590.4913	0.149570
591.1737	0.130424
591.8563	0.130509
592.5389	0.151575
593.2217	0.195987
593.9046	0.191301
594.5875	0.167406
595.2705	0.196388
595.9537	0.172641
596.6369	0.144482
597.3203	0.147733
598.0037	0.144905
598.6872	0.157042
599.3709	0.176293
600.0546	0.179712
600.7384	0.181337
601.4223	0.180472
602.1064	0.167153
602.7905	0.170087
603.4747	0.185200
604.1590	0.172831
604.8434	0.153707
605.5279	0.163712
606.2125	0.172092
606.8972	0.152694
607.5819	0.159364
608.2668	0.148366
608.9518	0.140831
609.6369	0.128651
610.3220	0.152504
611.0073	0.135976
611.6927	0.134942
612.3781	0.130002
613.0637	0.129475
613.7493	0.125992
614.4351	0.127997
615.1209	0.124430
615.8068	0.127258
616.4929	0.113031
617.1790	0.110688
617.8652	0.110646
618.5515	0.100430
619.2379	0.092240
619.9244	0.092936
620.6110	0.094371
621.2977	0.075817
621.9845	0.079174
622.6714	0.082910
623.3584	0.091332
624.0454	0.087617
624.7326	0.093126
625.4199	0.083712
626.1072	0.079131
626.7947	0.071617
627.4822	0.072292
628.1698	0.063216
628.8576	0.059944
629.5454	0.063469
630.2333	0.059268
630.9213	0.056778
631.6094	0.051184
632.2976	0.050234
632.9859	0.046688
633.6743	0.045780
634.3628	0.043416
635.0514	0.042297
635.7400	0.041706
636.4288	0.045633
637.1177	0.044619
637.8066	0.039912
638.4957	0.042213
639.1848	0.041474
639.8740	0.036521
640.5633	0.036509
641.2528	0.033675
641.9423	0.032029
642.6319	0.030250
643.3216	0.029835
644.0113	0.028482
644.7012	0.028720
645.3912	0.028639
646.0812	0.026606
646.7714	0.025973
647.4616	0.025053
648.1520	0.031571
648.8424	0.034429
649.5329	0.034193
650.2236	0.029979
650.9143	0.026704
651.6051	0.028846
652.2960	0.031959
652.9870	0.031428
653.6780	0.031472
654.3692	0.034493
655.0605	0.068025
655.7518	0.953812
656.4433	1.000000
657.1348	0.858687
657.8264	0.531564
658.5181	0.410151
659.2099	0.331774
659.9018	0.100602
660.5938	0.033200
661.2859	0.024240
661.9781	0.022924
662.6704	0.022735
663.3627	0.023280
664.0552	0.023582
664.7477	0.023339
665.4403	0.023728
666.1330	0.023430
666.8259	0.022882
667.5188	0.020663
668.2117	0.020579
668.9048	0.022920
669.5980	0.021421
670.2913	0.022625
670.9846	0.021231
671.6781	0.027796
672.3716	0.032883
673.0652	0.033432
673.7589	0.031553
674.4527	0.027142
675.1466	0.027733
675.8406	0.027627
676.5347	0.025495
677.2288	0.024271
677.9231	0.028577
678.6174	0.030878
679.3119	0.033622
680.0064	0.034276
680.7010	0.034614
681.3957	0.034487
682.0905	0.033495
682.7854	0.031110
683.4803	0.029147
684.1754	0.035501
684.8705	0.037801
685.5658	0.044556
686.2611	0.043226
686.9565	0.042888
687.6520	0.043395
688.3476	0.043036
689.0433	0.036619
689.7390	0.036155
690.4349	0.034804
691.1308	0.037844
691.8269	0.038857
692.5230	0.036851
693.2192	0.041727
693.9155	0.036577
694.6119	0.034234
695.3083	0.037126
696.0049	0.029506
696.7016	0.034002
697.3983	0.039131
698.0951	0.040102
698.7920	0.037400
699.4890	0.034487
700.1861	0.031131
700.8833	0.031216
701.5806	0.029506
702.2779	0.030941
702.9753	0.030603
703.6729	0.029632
704.3705	0.028957
705.0682	0.023427
705.7660	0.025749
706.4638	0.029611
707.1618	0.037105
707.8599	0.038540
708.5580	0.038751
709.2562	0.035057
709.9545	0.036851
710.6529	0.034445
711.3514	0.031574
712.0500	0.030076
712.7486	0.029801
713.4474	0.032567
714.1462	0.037210
714.8451	0.034530
715.5441	0.033136
716.2432	0.030519
716.9424	0.028767
717.6416	0.028387
718.3410	0.029801
719.0404	0.030371
719.7399	0.029696
720.4395	0.028450
721.1392	0.031596
721.8390	0.031110
722.5388	0.027395
723.2388	0.028619
723.9388	0.029949
724.6389	0.027395
725.3391	0.031743
726.0394	0.033812
726.7398	0.033474
727.4403	0.031300
728.1408	0.033833
728.8414	0.033622
729.5421	0.037801
730.2429	0.035522
730.9438	0.043965
731.6448	0.042698
732.3458	0.041179
733.0470	0.043902
733.7482	0.045464
734.4495	0.052725
735.1509	0.049221
735.8524	0.049073
736.5539	0.047617
737.2556	0.049770
737.9573	0.043965
738.6591	0.039807
739.3610	0.047954
740.0630	0.045780
740.7651	0.038118
741.4672	0.035754
742.1695	0.034825
742.8718	0.034466
743.5742	0.033369
744.2767	0.028894
744.9792	0.029400
745.6819	0.030160
746.3846	0.028303
747.0874	0.029126
747.7903	0.031997
748.4933	0.029464
749.1964	0.031005
749.8995	0.035838
750.6028	0.042129
751.3061	0.039384
752.0095	0.042656
752.7130	0.038245
753.4166	0.038625
754.1202	0.039047
754.8239	0.038941
755.5278	0.041685
756.2317	0.045823
756.9356	0.053105
757.6397	0.061232
758.3438	0.057305
759.0481	0.052978
759.7524	0.062519
760.4568	0.062625
761.1613	0.062181
761.8658	0.052556
762.5705	0.048440
763.2752	0.050804
763.9800	0.048292
764.6849	0.056419
765.3898	0.056883
766.0949	0.049960
766.8000	0.042635
767.5052	0.036662
768.2105	0.044619
768.9159	0.050762
769.6214	0.047828
770.3269	0.043543
771.0325	0.050424
771.7382	0.044619
772.4440	0.040377
773.1499	0.038414
773.8558	0.039131
774.5618	0.032524
775.2679	0.031448
775.9741	0.026952
776.6804	0.026023
777.3868	0.025622
778.0932	0.026065
778.7997	0.028408
779.5063	0.030287
780.2130	0.028598
780.9197	0.030772
781.6265	0.034952
782.3335	0.035775
783.0405	0.032440
783.7475	0.035564
784.4547	0.032060
785.1619	0.029147
785.8692	0.029611
786.5766	0.028345
787.2841	0.028049
787.9917	0.030371
788.6993	0.032355
789.4070	0.031279
790.1148	0.027733
790.8227	0.024651
791.5306	0.022477
792.2387	0.022920
792.9468	0.021126
793.6550	0.023638
794.3632	0.033136
795.0716	0.033559
795.7800	0.030625
796.4885	0.024714
797.1971	0.022772
797.9058	0.022477
798.6145	0.023574
799.3233	0.022603
800.0322	0.022582
800.7412	0.020556
801.4503	0.018340
802.1594	0.017664
802.8686	0.018213
803.5779	0.018150
804.2873	0.018445
804.9968	0.016968
805.7063	0.019479
806.4159	0.023764
807.1256	0.025200
807.8354	0.021295
808.5452	0.023237
809.2551	0.021548
809.9651	0.020978
810.6752	0.018973
811.3853	0.019099
812.0956	0.016250
812.8059	0.015701
813.5163	0.015870
814.2267	0.020704
814.9373	0.019121
815.6479	0.015194
816.3586	0.012936
817.0694	0.014688
817.7802	0.016018
818.4912	0.013485
819.2022	0.014772
819.9133	0.012303
820.6244	0.014878
821.3357	0.017622
822.0470	0.014350
822.7584	0.013084
823.4698	0.012493
824.1814	0.010741
824.8930	0.012851
825.6047	0.014308
826.3165	0.011986
827.0283	0.014097
827.7402	0.014519
828.4522	0.012113
829.1643	0.013886
829.8765	0.012155
830.5887	0.010424
831.3010	0.008799
832.0134	0.008186
832.7259	0.009875
833.4384	0.010888
834.1510	0.010508
834.8637	0.011543
835.5765	0.010994
836.2893	0.009643
837.0022	0.008756
837.7152	0.006266
838.4283	0.005442
839.1414	0.006624
839.8546	0.007975
840.5679	0.006603
841.2813	0.007173
841.9947	0.005464
842.7082	0.005527
843.4218	0.005527
844.1355	0.005358
844.8492	0.005295
845.5631	0.006118
846.2770	0.005717
846.9909	0.006118
847.7050	0.005886
848.4191	0.005295
849.1333	0.005801
849.8475	0.006962
850.5619	0.005295
851.2763	0.005569
851.9908	0.005105
852.7053	0.008651
853.4200	0.012683
854.1347	0.015026
854.8495	0.013822
855.5643	0.013632
856.2792	0.012239
856.9942	0.013590
857.7093	0.009981
858.4245	0.009833
859.1397	0.007638
859.8550	0.010023
860.5704	0.008313
861.2858	0.006540
862.0013	0.005801
862.7169	0.005738
863.4326	0.005442
864.1483	0.007300
864.8642	0.006245
865.5800	0.007216
866.2960	0.003817
867.0120	0.006223
867.7281	0.003690
868.4443	0.006751
869.1606	0.003817
869.8769	0.005358
870.5933	0.004809
871.3097	0.005379
872.0263	0.003880
872.7429	0.007004
873.4596	0.005358
874.1763	0.005632
874.8932	0.005168
875.6101	0.007680
876.3270	0.004894
877.0441	0.006350
877.7612	0.007427
878.4784	0.007405
879.1957	0.006603
879.9130	0.007469
880.6304	0.007363
881.3479	0.007722
882.0654	0.007321
882.7831	0.006646
883.5007	0.006920
884.2185	0.005295
884.9363	0.007659
885.6542	0.005991
886.3722	0.006477
887.0903	0.007194
887.8084	0.005274
888.5266	0.004767
889.2448	0.005991
889.9632	0.005717
890.6816	0.003690
891.4001	0.005442
892.1186	0.004872
892.8372	0.005379
893.5559	0.004767
894.2747	0.003880
894.9935	0.005231
895.7124	0.004640
896.4314	0.006012
897.1504	0.006118
897.8695	0.004113
898.5887	0.006456
899.3079	0.004091
900.0272	0.004704
900.7466	0.003669
901.4661	0.004471
902.1856	0.004872
902.9052	0.004070
903.6249	0.005041
904.3446	0.004429
905.0644	0.005105
905.7843	0.003902
906.5043	0.004978
907.2243	0.004619
907.9444	0.006456
908.6645	0.003880
909.3847	0.003986
910.1050	0.003944
910.8254	0.004957
911.5458	0.002888
912.2663	0.004746
912.9869	0.005210
913.7075	0.004218
914.4283	0.004471
915.1490	0.003648
915.8699	0.003606
916.5908	0.003310
917.3118	0.003585
918.0328	0.005675
918.7539	0.003859
919.4751	0.003121
920.1964	0.003310
920.9177	0.003754
921.6391	0.003627
922.3606	0.003712
923.0821	0.003585
923.8037	0.002931
924.5254	0.002741
925.2471	0.003226
925.9689	0.002424
926.6908	0.002487
927.4127	0.001263
928.1347	0.003880
928.8568	0.003416
929.5789	0.003332
930.3011	0.001981
931.0234	0.003036
931.7457	0.002065
932.4681	0.002614
933.1906	0.002192
933.9131	0.002762
934.6358	0.000862
935.3584	0.002508
936.0812	0.002466
936.8040	0.000756
937.5269	0.001031
938.2498	0.002150
938.9728	0.002403
939.6959	0.002234
940.4190	0.001727
941.1422	0.001179
941.8655	0.001854
942.5889	0.002361
943.3123	0.001706
944.0357	0.000503
944.7593	0.002318
945.4829	0.001516
946.2066	0.001960
946.9303	0.000081
947.6541	0.001179
948.3780	0.001833
949.1019	0.002445
949.8259	0.001770
950.5500	0.001284
951.2741	0.000883
951.9983	0.001263
952.7226	0.002508
953.4469	0.003036
954.1713	0.001685
954.8958	0.002192
955.6203	0.001242
956.3449	0.002107
957.0696	0.002593
957.7943	0.001242
958.5191	0.001474
959.2439	0.001453
959.9688	0.000841
960.6938	0.001537
961.4189	0.001474
962.1440	0.002318
962.8692	0.000229
963.5944	0.001369
964.3197	0.001411
965.0451	0.000419
965.7705	0.000566
966.4960	0.000693
967.2216	-0.000025
967.9472	0.002741
968.6729	0.000292
969.3987	0.000862
970.1245	0.000165
970.8504	-0.000215
971.5763	0.000799
972.3023	0.000440
973.0284	0.000883
973.7545	0.002023
974.4807	0.000862
975.2070	0.000904
975.9333	0.000313
976.6597	0.000989
977.3862	0.000925
978.1127	0.001960
978.8393	0.001580
979.5659	0.000060
980.2926	0.001073
981.0194	0.001875
981.7462	0.000904
982.4731	0.001791
983.2001	0.000735
983.9271	0.000756
984.6542	-0.000193
985.3814	0.000714
986.1086	0.000292
986.8358	0.000693
987.5632	0.000693
988.2906	0.001221
989.0180	0.001094
989.7456	0.001094
990.4732	0.001263
991.2008	0.001601
991.9285	0.000482
992.6563	0.001432
993.3841	0.001369
994.1120	0.001432
994.8400	0.000018
995.5680	0.000039
996.2961	0.000524
997.0242	0.000946
997.7524	0.000883
998.4807	0.000165
999.2090	-0.000320
999.9374	0.000883
1000.67	0.000081
1001.39	-0.000595
1002.12	0.000482
1002.85	-0.001460
1003.58	-0.000763
1004.31	0.001136
1005.04	0.000503
1005.77	0.000398
1006.5	0.000925
1007.22	0.000904
1007.95	-0.000109
1008.68	-0.000257
1009.41	0.001601
1010.14	0.001411
1010.87	0.000165
1011.6	0.000292
1012.33	0.000799
1013.06	0.000250
1013.79	0.001390
1014.52	0.000777
1015.25	0.001643
1015.98	0.001812
1016.71	0.000841
1017.44	0.000482
1018.17	0.001812
1018.9	0.000693
1019.63	0.000355
1020.36	-0.000257
1021.09	-0.000004
1021.82	0.000208
1022.55	0.000588
1023.03	-0.000067