File: Auto_Polymerization/Spectra/spectrum_2025-06-19_11-18-23.txt
# Wavelength (nm)	Intensity (a.u.)
197.7802	-0.001421
198.3922	0.000141
199.0044	0.000626
199.6168	0.001091
200.2292	-0.000260
200.8418	0.000837
201.4546	0.000457
202.0674	0.000584
202.6805	-0.000281
203.2936	-0.000281
203.9069	0.000352
204.5203	0.001112
205.1338	0.001407
205.7475	0.000668
206.3614	0.000774
206.9753	-0.000091
207.5894	0.001428
208.2036	0.000837
208.8180	0.000837
209.4325	0.000922
210.0471	0.000246
210.6618	0.000901
211.2767	0.001069
211.8918	-0.000429
212.5069	0.000901
213.1222	0.000014
213.7376	0.001344
214.3532	-0.000176
214.9689	-0.000218
215.5847	0.000711
216.2007	0.000795
216.8168	0.001323
217.4330	0.001344
218.0494	-0.000134
218.6659	0.000183
219.2825	0.000310
219.8992	0.001323
220.5161	0.001365
221.1332	0.001175
221.7503	0.001555
222.3676	-0.000007
222.9850	-0.000682
223.6026	0.000858
224.2203	0.000246
224.8381	0.001470
225.4561	-0.000366
226.0742	0.001344
226.6924	-0.000493
227.3107	-0.000155
227.9292	0.000099
228.5478	0.000478
229.1666	0.001639
229.7855	0.000500
230.4045	0.000605
231.0236	0.001618
231.6429	-0.000450
232.2623	0.001428
232.8818	0.000774
233.5015	-0.001105
234.1213	-0.000324
234.7413	0.000310
235.3613	0.000331
235.9815	-0.000450
236.6018	0.000521
237.2223	-0.000134
237.8429	-0.000894
238.4636	0.000056
239.0845	0.001555
239.7055	0.001703
240.3266	0.000943
240.9478	0.001027
241.5692	-0.000091
242.1907	0.000521
242.8124	-0.000260
243.4341	0.000690
244.0560	0.000204
244.6781	0.001998
245.3002	0.000099
245.9225	-0.000155
246.5449	0.000478
247.1675	0.001872
247.7902	0.000246
248.4130	0.001386
249.0359	-0.000408
249.6590	0.001555
250.2822	0.000943
250.9056	0.000225
251.5290	0.001787
252.1526	0.001787
252.7763	0.000858
253.4002	0.001281
254.0242	-0.001337
254.6483	-0.000155
255.2725	-0.000134
255.8969	0.000120
256.5214	-0.000028
257.1460	-0.000007
257.7708	-0.000408
258.3957	0.001386
259.0207	0.000879
259.6459	0.000035
260.2711	0.000647
260.8965	0.000457
261.5221	0.001660
262.1477	0.001428
262.7735	0.000901
263.3995	0.001048
264.0255	0.001872
264.6517	-0.001358
265.2780	0.000204
265.9044	0.001660
266.5310	0.000837
267.1577	0.000711
267.7845	0.000690
268.4114	0.000457
269.0385	0.000288
269.6657	-0.000028
270.2931	0.000521
270.9205	0.001259
271.5481	-0.000387
272.1758	0.001133
272.8037	0.000457
273.4316	0.000753
274.0597	-0.000028
274.6880	0.000415
275.3163	0.000077
275.9448	0.000985
276.5734	0.001449
277.2022	0.000795
277.8310	-0.000957
278.4600	0.001259
279.0891	-0.001062
279.7184	0.001576
280.3477	0.000542
280.9772	-0.000598
281.6069	-0.000324
282.2366	0.001576
282.8665	0.001872
283.4965	-0.000725
284.1266	0.001091
284.7569	0.000436
285.3873	0.000183
286.0178	0.000985
286.6484	0.000183
287.2792	0.001302
287.9101	-0.000260
288.5411	0.001175
289.1723	0.000647
289.8035	-0.000113
290.4349	-0.000809
291.0665	0.000774
291.6981	-0.000809
292.3299	-0.000260
292.9618	0.000605
293.5938	0.001259
294.2260	0.000373
294.8582	0.000774
295.4906	0.000500
296.1232	-0.000218
296.7558	-0.000978
297.3886	-0.000345
298.0215	0.001407
298.6545	0.001154
299.2877	0.000626
299.9210	-0.000091
300.5544	-0.000091
301.1879	0.002125
301.8215	0.000415
302.4553	0.000711
303.0892	0.000732
303.7233	0.001323
304.3574	0.000056
304.9917	-0.000218
305.6261	0.000837
306.2606	0.001703
306.8953	-0.000049
307.5301	0.000056
308.1650	0.000288
308.8000	0.000183
309.4351	-0.000661
310.0704	0.000816
310.7058	0.000521
311.3413	0.000584
311.9770	0.001998
312.6127	0.000246
313.2486	0.000690
313.8846	0.001893
314.5208	0.000077
315.1570	0.001513
315.7934	0.000436
316.4299	0.001808
317.0666	0.001175
317.7033	0.000310
318.3402	-0.000218
318.9772	0.000183
319.6143	0.000901
320.2516	0.001302
320.8890	0.000563
321.5265	0.001091
322.1641	-0.000661
322.8018	0.000521
323.4397	-0.000872
324.0777	0.000500
324.7158	-0.000936
325.3540	0.000478
325.9924	0.000500
326.6308	-0.000028
327.2694	-0.000345
327.9082	0.000711
328.5470	0.000331
329.1860	0.000922
329.8251	-0.000514
330.4643	0.000436
331.1036	0.000162
331.7431	0.001365
332.3826	0.001407
333.0223	-0.000155
333.6622	0.000521
334.3021	0.001344
334.9422	-0.000682
335.5823	0.001998
336.2227	0.000246
336.8631	0.000795
337.5036	0.000099
338.1443	0.000668
338.7851	0.000436
339.4260	-0.000577
340.0670	0.000795
340.7082	0.002821
341.3495	0.000668
341.9909	0.000837
342.6324	0.000858
343.2740	0.002083
343.9158	0.001534
344.5577	0.001365
345.1997	0.000500
345.8418	-0.000007
346.4840	0.000500
347.1264	0.001660
347.7689	0.001935
348.4115	0.002125
349.0542	0.000120
349.6971	-0.000218
350.3400	-0.000556
350.9831	-0.000324
351.6263	0.001048
352.2696	-0.000471
352.9131	0.000943
353.5566	0.000141
354.2003	0.001175
354.8441	-0.000281
355.4881	-0.000661
356.1321	0.000858
356.7763	-0.000387
357.4206	0.000858
358.0650	-0.000007
358.7095	-0.000281
359.3541	-0.000155
359.9989	0.002167
360.6438	0.000690
361.2888	0.000753
361.9339	-0.000007
362.5791	0.000901
363.2245	0.000668
363.8699	0.001534
364.5155	-0.000049
365.1612	-0.000113
365.8071	0.000521
366.4530	0.001175
367.0991	-0.000767
367.7453	0.001196
368.3916	0.001091
369.0380	0.001027
369.6845	-0.000788
370.3312	-0.000661
370.9780	0.001154
371.6249	0.000521
372.2719	0.000816
372.9190	0.001006
373.5663	0.000394
374.2136	0.000711
374.8611	0.000246
375.5087	0.000415
376.1564	0.000310
376.8043	0.000668
377.4522	0.000415
378.1003	0.001893
378.7485	0.000099
379.3968	0.001302
380.0452	0.000204
380.6938	0.001133
381.3424	0.001302
381.9912	0.000542
382.6401	0.000183
383.2891	0.001703
383.9382	0.000901
384.5875	0.001977
385.2368	0.001682
385.8863	0.001829
386.5359	0.001829
387.1856	0.000436
387.8355	0.000837
388.4854	0.001259
389.1355	0.001977
389.7856	0.000014
390.4359	0.003476
391.0863	0.003222
391.7369	0.002653
392.3875	0.004067
393.0383	0.004742
393.6891	0.004953
394.3401	0.005418
394.9912	0.005333
395.6425	0.007423
396.2938	0.006199
396.9453	0.007444
397.5968	0.011095
398.2485	0.009639
398.9003	0.011518
399.5522	0.009154
400.2043	0.012109
400.8564	0.011307
401.5087	0.011433
402.1610	0.012679
402.8135	0.013797
403.4661	0.014452
404.1189	0.014726
404.7717	0.015676
405.4246	0.016225
406.0777	0.018061
406.7309	0.017597
407.3842	0.015127
408.0376	0.016098
408.6911	0.018356
409.3448	0.016773
409.9985	0.019370
410.6524	0.017871
411.3064	0.019053
411.9605	0.018251
412.6147	0.022050
413.2690	0.020172
413.9234	0.020573
414.5780	0.019961
415.2326	0.020868
415.8874	0.021311
416.5423	0.021691
417.1973	0.023317
417.8524	0.022219
418.5077	0.022282
419.1630	0.024752
419.8185	0.022578
420.4741	0.023253
421.1298	0.026419
421.7856	0.028720
422.4415	0.025913
423.0975	0.027369
423.7536	0.025828
424.4099	0.025153
425.0663	0.027939
425.7228	0.025026
426.3793	0.024499
427.0361	0.024140
427.6929	0.029016
428.3498	0.025111
429.0068	0.026968
429.6640	0.028150
430.3213	0.031443
430.9787	0.031992
431.6362	0.028024
432.2938	0.025090
432.9515	0.023908
433.6093	0.029881
434.2673	0.030451
434.9253	0.025702
435.5835	0.025997
436.2418	0.027264
436.9001	0.029417
437.5586	0.026799
438.2173	0.028995
438.8760	0.027475
439.5348	0.028024
440.1938	0.028108
440.8528	0.027665
441.5120	0.031401
442.1713	0.031760
442.8307	0.030451
443.4902	0.030915
444.1498	0.029163
444.8095	0.030345
445.4694	0.031190
446.1293	0.027981
446.7894	0.027623
447.4496	0.026884
448.1098	0.026905
448.7702	0.024478
449.4307	0.026314
450.0914	0.026230
450.7521	0.024140
451.4129	0.022937
452.0739	0.023676
452.7349	0.023401
453.3961	0.021881
454.0574	0.021396
454.7188	0.019750
455.3803	0.021122
456.0419	0.019707
456.7036	0.017090
457.3654	0.019602
458.0274	0.021902
458.6894	0.020172
459.3516	0.020003
460.0138	0.021586
460.6762	0.019180
461.3387	0.018905
462.0013	0.016203
462.6640	0.016077
463.3268	0.016372
463.9897	0.018504
464.6528	0.017259
465.3159	0.016583
465.9792	0.018757
466.6425	0.013966
467.3060	0.013713
467.9696	0.013460
468.6333	0.012066
469.2970	0.011961
469.9610	0.009829
470.6250	0.011243
471.2891	0.010694
471.9533	0.008478
472.6177	0.010483
473.2821	0.009745
473.9467	0.009766
474.6113	0.009892
475.2761	0.009449
475.9410	0.008520
476.6060	0.009723
477.2711	0.008795
477.9363	0.008605
478.6016	0.008710
479.2670	0.006853
479.9325	0.009196
480.5982	0.008816
481.2639	0.007127
481.9298	0.008162
482.5957	0.007507
483.2618	0.007845
483.9280	0.007106
484.5943	0.008436
485.2606	0.006262
485.9271	0.019939
486.5937	0.013037
487.2605	0.011686
487.9273	0.005734
488.5942	0.005502
489.2612	0.006790
489.9284	0.004383
490.5956	0.005080
491.2630	0.004848
491.9304	0.003792
492.5980	0.005291
493.2657	0.004426
493.9334	0.004573
494.6013	0.004257
495.2693	0.005586
495.9374	0.004257
496.6056	0.004805
497.2739	0.005629
497.9423	0.003898
498.6109	0.003476
499.2795	0.002463
499.9482	0.003813
500.6171	0.002864
501.2860	0.005101
501.9551	0.004109
502.6242	0.002842
503.2935	0.004362
503.9628	0.002125
504.6323	0.003877
505.3019	0.002885
505.9716	0.002990
506.6414	0.003032
507.3113	0.004299
507.9813	0.005017
508.6514	0.003813
509.3216	0.002357
509.9919	0.003602
510.6623	0.002842
511.3329	0.003898
512.0035	0.003813
512.6742	0.004299
513.3451	0.003792
514.0160	0.003286
514.6871	0.004426
515.3582	0.004236
516.0295	0.003096
516.7008	0.001998
517.3723	0.003265
518.0439	0.003159
518.7155	0.002568
519.3873	0.003645
520.0592	0.003096
520.7312	0.003307
521.4033	0.005038
522.0755	0.002484
522.7478	0.004299
523.4202	0.004172
524.0927	0.003771
524.7653	0.003222
525.4380	0.005207
526.1108	0.004827
526.7837	0.006135
527.4568	0.004257
528.1299	0.004046
528.8031	0.005270
529.4765	0.004890
530.1499	0.004531
530.8234	0.005945
531.4971	0.005586
532.1708	0.006199
532.8447	0.005692
533.5186	0.006958
534.1927	0.007634
534.8668	0.009090
535.5411	0.009280
536.2155	0.009808
536.8899	0.009048
537.5645	0.010504
538.2392	0.008140
538.9139	0.009597
539.5888	0.011750
540.2638	0.009956
540.9389	0.011729
541.6140	0.011919
542.2893	0.011180
542.9647	0.012510
543.6402	0.013333
544.3158	0.015992
544.9915	0.015064
545.6673	0.015169
546.3432	0.015127
547.0192	0.015802
547.6953	0.018124
548.3715	0.020151
549.0478	0.018821
549.7242	0.018145
550.4007	0.020826
551.0773	0.019074
551.7540	0.018990
552.4308	0.023992
553.1077	0.022451
553.7847	0.023232
554.4618	0.023908
555.1390	0.023232
555.8163	0.026251
556.4937	0.028425
557.1712	0.024456
557.8488	0.027390
558.5266	0.024731
559.2044	0.024900
559.8823	0.029121
560.5603	0.032836
561.2384	0.035622
561.9166	0.034651
562.5949	0.034757
563.2733	0.035306
563.9519	0.038197
564.6305	0.039633
565.3092	0.042693
565.9880	0.042799
566.6669	0.043685
567.3459	0.051178
568.0250	0.055907
568.7043	0.064033
569.3836	0.078154
570.0630	0.102913
570.7425	0.105720
571.4221	0.125941
572.1018	0.138985
572.7816	0.120728
573.4615	0.137086
574.1415	0.159650
574.8216	0.176282
575.5018	0.174024
576.1821	0.160135
576.8626	0.178836
577.5431	0.193358
578.2237	0.244628
578.9044	0.201041
579.5851	0.202434
580.2660	0.208176
580.9470	0.205558
581.6281	0.317027
582.3093	0.307845
582.9906	0.238000
583.6720	0.198002
584.3535	0.196925
585.0351	0.223795
585.7167	0.236481
586.3985	0.208239
587.0804	0.215204
587.7624	0.229389
588.4445	0.201252
589.1266	0.177042
589.8089	0.166151
590.4913	0.152262
591.1737	0.136115
591.8563	0.135144
592.5389	0.155534
593.2217	0.204081
593.9046	0.195976
594.5875	0.171765
595.2705	0.198086
595.9537	0.175628
596.6369	0.146732
597.3203	0.152895
598.0037	0.143059
598.6872	0.153149
599.3709	0.181496
600.0546	0.181812
600.7384	0.183923
601.4223	0.186773
602.1064	0.167480
602.7905	0.170794
603.4747	0.189517
604.1590	0.173264
604.8434	0.158974
605.5279	0.166657
606.2125	0.176557
606.8972	0.155259
607.5819	0.162541
608.2668	0.151523
608.9518	0.142320
609.6369	0.131724
610.3220	0.151101
611.0073	0.139766
611.6927	0.139281
612.3781	0.128221
613.0637	0.129550
613.7493	0.125920
614.4351	0.127820
615.1209	0.126616
615.8068	0.134848
616.4929	0.117076
617.1790	0.115071
617.8652	0.111546
618.5515	0.103504
619.2379	0.092887
619.9244	0.093246
620.6110	0.095736
621.2977	0.075241
621.9845	0.079399
622.6714	0.083663
623.3584	0.090523
624.0454	0.089784
624.7326	0.091135
625.4199	0.084993
626.1072	0.077098
626.7947	0.071399
627.4822	0.071378
628.1698	0.067220
628.8576	0.062197
629.5454	0.066144
630.2333	0.061437
630.9213	0.057574
631.6094	0.052213
632.2976	0.053205
632.9859	0.047590
633.6743	0.046429
634.3628	0.043559
635.0514	0.041786
635.7400	0.042081
636.4288	0.047379
637.1177	0.045015
637.8066	0.041659
638.4957	0.043200
639.1848	0.041849
639.8740	0.040387
640.5633	0.038398
641.2528	0.034474
641.9423	0.033637
642.6319	0.032900
643.3216	0.030975
644.0113	0.029594
644.7012	0.026997
645.3912	0.027313
646.0812	0.027648
646.7714	0.025791
647.4616	0.025692
648.1520	0.029370
648.8424	0.033662
649.5329	0.033418
650.2236	0.029974
650.9143	0.029334
651.6051	0.032505
652.2960	0.031595
652.9870	0.031402
653.6780	0.034018
654.3692	0.034297
655.0605	0.067955
655.7518	0.962097
656.4433	1.006725
657.1348	0.866460
657.8264	0.537933
658.5181	0.416279
659.2099	0.334095
659.9018	0.100129
660.5938	0.030687
661.2859	0.023410
661.9781	0.023767
662.6704	0.024196
663.3627	0.022600
664.0552	0.022943
664.7477	0.024363
665.4403	0.024286
666.1330	0.024707
666.8259	0.023488
667.5188	0.023337
668.2117	0.021077
668.9048	0.021670
669.5980	0.020868
670.2913	0.024267
670.9846	0.022325
671.6781	0.028003
672.3716	0.035369
673.0652	0.033512
673.7589	0.031000
674.4527	0.028509
675.1466	0.028910
675.8406	0.028741
676.5347	0.023063
677.2288	0.023802
677.9231	0.028171
678.6174	0.028235
679.3119	0.034250
680.0064	0.035052
680.7010	0.033174
681.3957	0.034757
682.0905	0.035306
682.7854	0.031823
683.4803	0.032688
684.1754	0.031929
684.8705	0.040730
685.5658	0.045944
686.2611	0.044635
686.9565	0.043327
687.6520	0.043770
688.3476	0.039591
689.0433	0.036889
689.7390	0.035918
690.4349	0.036635
691.1308	0.037923
691.8269	0.037226
692.5230	0.039527
693.2192	0.038915
693.9155	0.038831
694.6119	0.035369
695.3083	0.036699
696.0049	0.031760
696.7016	0.036657
697.3983	0.039506
698.0951	0.040519
698.7920	0.039591
699.4890	0.035749
700.1861	0.031527
700.8833	0.028192
701.5806	0.028636
702.2779	0.031760
702.9753	0.029944
703.6729	0.029227
704.3705	0.029290
705.0682	0.025617
705.7660	0.023844
706.4638	0.029712
707.1618	0.039021
707.8599	0.037606
708.5580	0.038598
709.2562	0.034398
709.9545	0.033533
710.6529	0.034715
711.3514	0.034905
712.0500	0.028889
712.7486	0.029417
713.4474	0.031021
714.1462	0.034630
714.8451	0.034799
715.5441	0.035158
716.2432	0.030852
716.9424	0.031612
717.6416	0.028572
718.3410	0.031929
719.0404	0.031380
719.7399	0.030557
720.4395	0.027707
721.1392	0.031190
721.8390	0.030472
722.5388	0.028530
723.2388	0.029501
723.9388	0.028551
724.6389	0.028551
725.3391	0.033216
726.0394	0.031570
726.7398	0.030894
727.4403	0.032752
728.1408	0.034630
728.8414	0.033322
729.5421	0.037015
730.2429	0.038324
730.9438	0.042039
731.6448	0.044952
732.3458	0.041089
733.0470	0.041216
733.7482	0.045606
734.4495	0.054302
735.1509	0.049764
735.8524	0.048709
736.5539	0.047442
737.2556	0.048582
737.9573	0.044741
738.6591	0.039021
739.3610	0.047253
740.0630	0.043200
740.7651	0.038134
741.4672	0.034968
742.1695	0.034884
742.8718	0.033111
743.5742	0.031338
744.2767	0.030683
744.9792	0.029754
745.6819	0.027897
746.3846	0.030620
747.0874	0.031485
747.7903	0.032583
748.4933	0.029649
749.1964	0.031232
749.8995	0.036783
750.6028	0.042714
751.3061	0.039063
752.0095	0.041300
752.7130	0.039126
753.4166	0.038852
754.1202	0.043284
754.8239	0.041005
755.5278	0.041659
756.2317	0.047675
756.9356	0.053606
757.6397	0.058418
758.3438	0.055885
759.0481	0.056160
759.7524	0.061226
760.4568	0.061437
761.1613	0.062851
761.8658	0.052107
762.5705	0.050039
763.2752	0.048329
763.9800	0.053353
764.6849	0.058207
765.3898	0.057954
766.0949	0.050503
766.8000	0.041997
767.5052	0.040013
768.2105	0.043896
768.9159	0.046429
769.6214	0.045458
770.3269	0.043516
771.0325	0.048667
771.7382	0.045437
772.4440	0.040414
773.1499	0.039337
773.8558	0.038345
774.5618	0.032667
775.2679	0.031485
775.9741	0.027517
776.6804	0.026040
777.3868	0.025322
778.0932	0.025934
778.7997	0.030261
779.5063	0.031506
780.2130	0.030451
780.9197	0.032351
781.6265	0.036910
782.3335	0.034715
783.0405	0.033174
783.7475	0.036551
784.4547	0.030578
785.1619	0.028319
785.8692	0.029206
786.5766	0.030113
787.2841	0.030388
787.9917	0.031675
788.6993	0.031232
789.4070	0.030388
790.1148	0.027791
790.8227	0.025892
791.5306	0.023887
792.2387	0.025744
792.9468	0.023338
793.6550	0.023338
794.3632	0.029206
795.0716	0.032667
795.7800	0.030177
796.4885	0.024731
797.1971	0.023317
797.9058	0.022029
798.6145	0.023169
799.3233	0.023042
800.0322	0.021734
800.7412	0.019581
801.4503	0.020636
802.1594	0.018821
802.8686	0.018251
803.5779	0.017871
804.2873	0.019201
804.9968	0.017470
805.7063	0.018779
806.4159	0.024119
807.1256	0.024562
807.8354	0.023253
808.5452	0.023971
809.2551	0.023992
809.9651	0.019686
810.6752	0.020045
811.3853	0.020003
812.0956	0.016710
812.8059	0.015908
813.5163	0.018715
814.2267	0.018631
814.9373	0.016794
815.6479	0.015211
816.3586	0.012320
817.0694	0.014768
817.7802	0.015634
818.4912	0.014156
819.2022	0.012826
819.9133	0.012995
820.6244	0.016499
821.3357	0.015908
822.0470	0.013649
822.7584	0.011919
823.4698	0.012995
824.1814	0.010589
824.8930	0.012214
825.6047	0.014198
826.3165	0.011602
827.0283	0.015043
827.7402	0.013924
828.4522	0.014219
829.1643	0.011982
829.8765	0.013544
830.5887	0.010146
831.3010	0.009196
832.0134	0.008330
832.7259	0.008985
833.4384	0.010589
834.1510	0.010315
834.8637	0.010146
835.5765	0.011328
836.2893	0.010821
837.0022	0.008753
837.7152	0.007887
838.4283	0.007022
839.1414	0.008563
839.8546	0.007106
840.5679	0.007296
841.2813	0.007803
841.9947	0.006452
842.7082	0.008415
843.4218	0.005101
844.1355	0.005312
844.8492	0.005101
845.5631	0.004637
846.2770	0.004995
846.9909	0.006177
847.7050	0.005291
848.4191	0.006156
849.1333	0.005544
849.8475	0.006093
850.5619	0.004552
851.2763	0.005059
851.9908	0.006241
852.7053	0.008879
853.4200	0.012974
854.1347	0.014515
854.8495	0.013755
855.5643	0.013671
856.2792	0.013502
856.9942	0.013122
857.7093	0.013270
858.4245	0.010547
859.1397	0.008837
859.8550	0.008647
860.5704	0.008330
861.2858	0.005776
862.0013	0.008457
862.7169	0.005692
863.4326	0.006663
864.1483	0.006072
864.8642	0.006093
865.5800	0.005650
866.2960	0.004573
867.0120	0.005312
867.7281	0.005270
868.4443	0.006241
869.1606	0.004721
869.8769	0.005418
870.5933	0.005017
871.3097	0.006494
872.0263	0.005755
872.7429	0.007212
873.4596	0.005861
874.1763	0.005966
874.8932	0.006220
875.6101	0.005185
876.3270	0.005228
877.0441	0.005059
877.7612	0.007549
878.4784	0.005650
879.1957	0.007782
879.9130	0.005924
880.6304	0.009111
881.3479	0.007148
882.0654	0.008415
882.7831	0.005122
883.5007	0.008352
884.2185	0.006452
884.9363	0.007592
885.6542	0.007486
886.3722	0.006621
887.0903	0.005608
887.8084	0.005629
888.5266	0.006072
889.2448	0.005101
889.9632	0.004468
890.6816	0.005207
891.4001	0.004805
892.1186	0.004721
892.8372	0.004679
893.5559	0.005017
894.2747	0.003961
894.9935	0.005713
895.7124	0.004172
896.4314	0.005776
897.1504	0.004003
897.8695	0.005080
898.5887	0.005502
899.3079	0.004341
900.0272	0.005734
900.7466	0.004742
901.4661	0.004046
902.1856	0.004932
902.9052	0.004320
903.6249	0.004109
904.3446	0.005207
905.0644	0.005966
905.7843	0.004953
906.5043	0.005692
907.2243	0.003391
907.9444	0.004046
908.6645	0.004637
909.3847	0.004404
910.1050	0.004172
910.8254	0.004299
911.5458	0.003138
912.2663	0.003560
912.9869	0.005143
913.7075	0.003729
914.4283	0.004046
915.1490	0.004721
915.8699	0.003581
916.5908	0.004278
917.3118	0.004531
918.0328	0.004615
918.7539	0.004024
919.4751	0.003032
920.1964	0.004046
920.9177	0.003666
921.6391	0.003560
922.3606	0.004700
923.0821	0.001998
923.8037	0.004890
924.5254	0.004468
925.2471	0.003602
925.9689	0.002779
926.6908	0.003835
927.4127	0.003349
928.1347	0.003201
928.8568	0.002399
929.5789	0.002779
930.3011	0.002864
931.0234	0.002019
931.7457	0.002230
932.4681	0.003581
933.1906	0.002315
933.9131	0.003666
934.6358	0.003138
935.3584	0.002230
936.0812	0.001302
936.8040	0.002251
937.5269	0.001745
938.2498	0.001555
938.9728	0.002273
939.6959	0.000922
940.4190	0.001766
941.1422	0.002800
941.8655	0.001576
942.5889	0.001534
943.3123	0.003602
944.0357	0.003560
944.7593	0.001893
945.4829	0.001238
946.2066	0.001323
946.9303	0.001470
947.6541	0.002378
948.3780	0.001576
949.1019	0.000922
949.8259	0.000246
950.5500	0.001850
951.2741	0.001513
951.9983	0.002040
952.7226	0.002463
953.4469	0.002463
954.1713	0.001787
954.8958	0.002104
955.6203	0.000120
956.3449	0.000901
957.0696	0.001597
957.7943	0.001766
958.5191	0.001745
959.2439	0.001365
959.9688	0.000837
960.6938	0.001618
961.4189	0.001238
962.1440	0.001787
962.8692	0.001977
963.5944	0.000985
964.3197	0.000436
965.0451	0.002357
965.7705	0.000436
966.4960	0.001407
967.2216	0.001006
967.9472	0.001175
968.6729	0.001998
969.3987	0.000204
970.1245	0.000901
970.8504	0.001344
971.5763	0.001006
972.3023	0.001660
973.0284	0.002315
973.7545	0.001365
974.4807	0.000204
975.2070	0.000246
975.9333	0.001091
976.6597	0.000816
977.3862	0.000035
978.1127	0.000457
978.8393	0.001259
979.5659	0.001534
980.2926	0.001914
981.0194	0.000922
981.7462	0.000626
982.4731	0.001006
983.2001	0.000120
983.9271	0.001006
984.6542	0.001281
985.3814	0.001724
986.1086	0.000837
986.8358	0.001787
987.5632	-0.000049
988.2906	0.000647
989.0180	-0.000303
989.7456	0.001365
990.4732	0.000246
991.2008	0.000183
991.9285	0.000690
992.6563	-0.001316
993.3841	0.001259
994.1120	0.000901
994.8400	0.000267
995.5680	0.000542
996.2961	0.000605
997.0242	0.000922
997.7524	0.000879
998.4807	0.000141
999.2090	-0.000007
999.9374	-0.000260
1000.67	0.000964
1001.39	0.000542
1002.12	0.000711
1002.85	0.000668
1003.58	0.002547
1004.31	0.000964
1005.04	0.000753
1005.77	0.000331
1006.5	0.000711
1007.22	-0.000324
1007.95	0.001956
1008.68	0.000605
1009.41	0.001597
1010.14	0.000711
1010.87	0.001449
1011.6	0.001808
1012.33	0.001618
1013.06	0.000922
1013.79	0.001555
1014.52	0.000753
1015.25	0.001133
1015.98	0.001175
1016.71	0.000352
1017.44	-0.000134
1018.17	0.000690
1018.9	0.001006
1019.63	0.001470
1020.36	0.000204
1021.09	0.002230
1021.82	-0.000281
1022.55	0.001069
1023.03	0.000668