File: Auto_Polymerization/Spectra/spectrum_2025-06-19_11-33-43.txt
# Wavelength (nm)	Intensity (a.u.)
197.7802	0.001771
198.3922	0.001053
199.0044	-0.000023
199.6168	0.002193
200.2292	0.000885
200.8418	-0.000677
201.4546	0.001011
202.0674	-0.001479
202.6805	0.000315
203.2936	-0.000002
203.9069	0.000484
204.5203	-0.000403
205.1338	0.000547
205.7475	-0.000508
206.3614	0.000779
206.9753	0.001264
207.5894	-0.000276
208.2036	0.002594
208.8180	0.000146
209.4325	0.002045
210.0471	-0.000171
210.6618	0.000927
211.2767	0.001665
211.8918	0.000652
212.5069	0.001074
213.1222	-0.000086
213.7376	0.002277
214.3532	0.000927
214.9689	0.002003
215.5847	0.002383
216.2007	0.001138
216.8168	-0.000508
217.4330	0.000167
218.0494	-0.000086
218.6659	0.000800
219.2825	0.001602
219.8992	0.001855
220.5161	-0.000698
221.1332	0.001750
221.7503	0.001433
222.3676	0.000927
222.9850	0.000441
223.6026	0.001138
224.2203	-0.001099
224.8381	0.000631
225.4561	0.001581
226.0742	0.001011
226.6924	0.001307
227.3107	0.001370
227.9292	0.000294
228.5478	0.000885
229.1666	0.000273
229.7855	0.003037
230.4045	0.000695
231.0236	0.000547
231.6429	-0.000023
232.2623	0.001096
232.8818	0.000040
233.5015	0.003037
234.1213	-0.000951
234.7413	0.000294
235.3613	0.001644
235.9815	0.000315
236.6018	0.001307
237.2223	0.000462
237.8429	0.000927
238.4636	0.001074
239.0845	0.000484
239.7055	0.000547
240.3266	0.001475
240.9478	0.002066
241.5692	0.000927
242.1907	0.001032
242.8124	-0.000213
243.4341	0.001307
244.0560	0.000315
244.6781	0.001285
245.3002	0.000758
245.9225	0.000652
246.5449	-0.000002
247.1675	0.000315
247.7902	0.001011
248.4130	0.001496
249.0359	0.000610
249.6590	-0.000255
250.2822	0.002235
250.9056	0.000420
251.5290	0.000821
252.1526	0.001665
252.7763	0.001032
253.4002	0.000652
254.0242	0.000505
254.6483	0.000652
255.2725	-0.000593
255.8969	0.001243
256.5214	0.001560
257.1460	0.001813
257.7708	0.001096
258.3957	0.001264
259.0207	0.002530
259.6459	0.000547
260.2711	0.000420
260.8965	0.002108
261.5221	-0.000234
262.1477	-0.000529
262.7735	0.001243
263.3995	0.000800
264.0255	0.000336
264.6517	0.000505
265.2780	-0.000234
265.9044	0.002151
266.5310	0.001307
267.1577	-0.000677
267.7845	0.001074
268.4114	0.001454
269.0385	0.000589
269.6657	0.000906
270.2931	0.000927
270.9205	0.001729
271.5481	-0.000276
272.1758	0.001897
272.8037	0.001370
273.4316	0.000378
274.0597	0.001053
274.6880	0.000800
275.3163	0.000610
275.9448	0.000863
276.5734	-0.000382
277.2022	0.001307
277.8310	0.000209
278.4600	0.000674
279.0891	-0.000065
279.7184	0.000251
280.3477	-0.000065
280.9772	0.001032
281.6069	0.000652
282.2366	0.001264
282.8665	0.001264
283.4965	0.000125
284.1266	0.001201
284.7569	0.002636
285.3873	0.000336
286.0178	0.001560
286.6484	0.000568
287.2792	0.000336
287.9101	0.001750
288.5411	0.000589
289.1723	0.000547
289.8035	0.001159
290.4349	-0.000930
291.0665	0.001496
291.6981	0.000484
292.3299	-0.000677
292.9618	-0.000044
293.5938	0.001855
294.2260	0.000251
294.8582	0.001201
295.4906	0.001897
296.1232	0.001053
296.7558	0.000589
297.3886	0.000505
298.0215	0.001096
298.6545	0.001243
299.2877	0.000885
299.9210	0.001074
300.5544	0.000885
301.1879	0.000167
301.8215	0.000040
302.4553	0.002045
303.0892	0.000315
303.7233	-0.000360
304.3574	-0.000635
304.9917	0.002087
305.6261	0.000125
306.2606	0.000251
306.8953	0.001307
307.5301	0.000273
308.1650	0.000927
308.8000	-0.000107
309.4351	0.000821
310.0704	0.000336
310.7058	0.000969
311.3413	0.001771
311.9770	0.001264
312.6127	-0.000677
313.2486	0.001518
313.8846	0.000990
314.5208	0.001328
315.1570	0.001222
315.7934	0.001433
316.4299	0.000230
317.0666	-0.000656
317.7033	0.000357
318.3402	0.001201
318.9772	-0.000403
319.6143	0.001053
320.2516	-0.000656
320.8890	0.001096
321.5265	0.001961
322.1641	0.000462
322.8018	0.000294
323.4397	0.000336
324.0777	0.001243
324.7158	0.000842
325.3540	0.001813
325.9924	0.000315
326.6308	0.001053
327.2694	0.001433
327.9082	0.001138
328.5470	-0.000994
329.1860	0.000695
329.8251	0.000927
330.4643	0.000146
331.1036	0.000737
331.7431	0.000294
332.3826	0.000652
333.0223	0.001855
333.6622	0.000631
334.3021	0.000315
334.9422	0.000146
335.5823	0.001159
336.2227	0.001307
336.8631	0.001665
337.5036	0.000062
338.1443	0.001729
338.7851	0.000484
339.4260	-0.000086
340.0670	0.001180
340.7082	0.000167
341.3495	-0.000023
341.9909	0.001644
342.6324	0.000990
343.2740	0.001011
343.9158	0.000863
344.5577	0.001096
345.1997	0.000230
345.8418	0.000062
346.4840	0.000674
347.1264	0.000420
347.7689	-0.000698
348.4115	0.001264
349.0542	-0.001183
349.6971	0.000526
350.3400	0.001096
350.9831	0.000906
351.6263	0.000209
352.2696	0.001222
352.9131	-0.000403
353.5566	0.002066
354.2003	0.001750
354.8441	0.001433
355.4881	0.000484
356.1321	0.000821
356.7763	0.000420
357.4206	0.000821
358.0650	0.001412
358.7095	0.001454
359.3541	0.000695
359.9989	0.000273
360.6438	0.000589
361.2888	0.001349
361.9339	0.000885
362.5791	0.001982
363.2245	0.001919
363.8699	0.000948
364.5155	-0.000044
365.1612	0.001433
365.8071	0.000990
366.4530	-0.000149
367.0991	0.000357
367.7453	0.001053
368.3916	0.000251
369.0380	0.001138
369.6845	0.000526
370.3312	0.001602
370.9780	0.000462
371.6249	-0.000107
372.2719	-0.001226
372.9190	0.000737
373.5663	0.001961
374.2136	0.000674
374.8611	0.001897
375.5087	0.001117
376.1564	0.001180
376.8043	0.000019
377.4522	-0.001057
378.1003	0.001264
378.7485	0.000737
379.3968	0.002425
380.0452	0.000842
380.6938	0.000378
381.3424	0.000737
381.9912	0.001011
382.6401	0.000610
383.2891	0.001328
383.9382	-0.000149
384.5875	0.000441
385.2368	0.000758
385.8863	0.000716
386.5359	0.000209
387.1856	0.001391
387.8355	-0.000044
388.4854	0.001855
389.1355	0.001475
389.7856	0.002341
390.4359	0.002256
391.0863	0.002678
391.7369	0.001834
392.3875	0.003311
393.0383	0.004240
393.6891	0.004324
394.3401	0.004324
394.9912	0.003818
395.6425	0.003754
396.2938	0.004261
396.9453	0.007004
397.5968	0.007785
398.2485	0.007785
398.9003	0.008017
399.5522	0.008798
400.2043	0.008882
400.8564	0.007743
401.5087	0.011224
402.1610	0.009642
402.8135	0.008692
403.4661	0.011604
404.1189	0.011710
404.7717	0.010802
405.4246	0.013440
406.0777	0.013926
406.7309	0.013250
407.3842	0.012681
408.0376	0.015424
408.6911	0.014284
409.3448	0.013103
409.9985	0.015593
410.6524	0.015466
411.3064	0.015593
411.9605	0.015698
412.6147	0.018146
413.2690	0.016985
413.9234	0.017302
414.5780	0.017998
415.2326	0.016690
415.8874	0.016479
416.5423	0.018062
417.1973	0.017386
417.8524	0.018357
418.5077	0.017893
419.1630	0.019961
419.8185	0.020362
420.4741	0.020362
421.1298	0.022957
421.7856	0.025890
422.4415	0.023822
423.0975	0.022936
423.7536	0.023084
424.4099	0.025722
425.0663	0.024329
425.7228	0.023063
426.3793	0.021607
427.0361	0.022176
427.6929	0.024076
428.3498	0.023274
429.0068	0.023042
429.6640	0.027768
430.3213	0.027220
430.9787	0.025553
431.6362	0.025236
432.2938	0.022725
432.9515	0.020615
433.6093	0.024899
434.2673	0.026355
434.9253	0.023632
435.5835	0.023907
436.2418	0.024814
436.9001	0.024793
437.5586	0.024814
438.2173	0.026207
438.8760	0.025954
439.5348	0.025173
440.1938	0.025553
440.8528	0.025300
441.5120	0.027515
442.1713	0.029668
442.8307	0.027621
443.4902	0.029246
444.1498	0.028528
444.8095	0.029288
445.4694	0.027030
446.1293	0.027072
446.7894	0.029562
447.4496	0.027515
448.1098	0.025827
448.7702	0.024793
449.4307	0.025637
450.0914	0.024814
450.7521	0.024877
451.4129	0.022387
452.0739	0.020552
452.7349	0.021248
453.3961	0.020910
454.0574	0.019855
454.7188	0.020362
455.3803	0.019707
456.0419	0.019201
456.7036	0.017977
457.3654	0.019961
458.0274	0.019159
458.6894	0.018589
459.3516	0.019222
460.0138	0.021607
460.6762	0.018526
461.3387	0.018251
462.0013	0.017028
462.6640	0.014664
463.3268	0.016247
463.9897	0.016901
464.6528	0.016711
465.3159	0.016563
465.9792	0.017787
466.6425	0.015171
467.3060	0.014263
467.9696	0.013715
468.6333	0.011963
469.2970	0.011351
469.9610	0.011499
470.6250	0.009536
471.2891	0.009600
471.9533	0.010929
472.6177	0.010064
473.2821	0.010486
473.9467	0.009452
474.6113	0.009768
475.2761	0.009135
475.9410	0.010486
476.6060	0.011056
477.2711	0.007447
477.9363	0.008312
478.6016	0.007700
479.2670	0.008629
479.9325	0.007110
480.5982	0.009663
481.2639	0.009072
481.9298	0.007089
482.5957	0.008545
483.2618	0.007468
483.9280	0.006413
484.5943	0.007827
485.2606	0.006329
485.9271	0.019855
486.5937	0.013314
487.2605	0.011984
487.9273	0.007046
488.5942	0.006012
489.2612	0.005907
489.9284	0.007025
490.5956	0.006012
491.2630	0.004134
491.9304	0.004978
492.5980	0.004071
493.2657	0.004746
493.9334	0.006371
494.6013	0.004071
495.2693	0.003902
495.9374	0.003375
496.6056	0.004240
497.2739	0.004324
497.9423	0.004155
498.6109	0.003417
499.2795	0.003797
499.9482	0.004303
500.6171	0.003902
501.2860	0.004071
501.9551	0.003987
502.6242	0.004915
503.2935	0.002910
503.9628	0.003459
504.6323	0.004472
505.3019	0.003733
505.9716	0.004071
506.6414	0.003375
507.3113	0.003712
507.9813	0.002636
508.6514	0.003100
509.3216	0.003100
509.9919	0.004134
510.6623	0.002868
511.3329	0.003396
512.0035	0.003269
512.6742	0.002826
513.3451	0.003079
514.0160	0.005084
514.6871	0.002931
515.3582	0.003269
516.0295	0.003733
516.7008	0.004282
517.3723	0.003290
518.0439	0.002826
518.7155	0.004472
519.3873	0.005611
520.0592	0.003290
520.7312	0.003818
521.4033	0.005527
522.0755	0.003543
522.7478	0.004809
523.4202	0.004240
524.0927	0.004029
524.7653	0.003965
525.4380	0.006751
526.1108	0.004176
526.7837	0.004894
527.4568	0.004556
528.1299	0.004029
528.8031	0.006645
529.4765	0.006097
530.1499	0.006519
530.8234	0.005316
531.4971	0.004683
532.1708	0.007806
532.8447	0.006645
533.5186	0.008249
534.1927	0.008249
534.8668	0.010064
535.5411	0.009304
536.2155	0.008502
536.8899	0.006624
537.5645	0.009009
538.2392	0.008924
538.9139	0.011436
539.5888	0.011984
540.2638	0.010233
540.9389	0.012322
541.6140	0.013672
542.2893	0.012069
542.9647	0.014432
543.6402	0.013081
544.3158	0.015360
544.9915	0.015888
545.6673	0.015508
546.3432	0.013609
547.0192	0.016753
547.6953	0.017576
548.3715	0.019285
549.0478	0.018863
549.7242	0.018378
550.4007	0.019222
551.0773	0.018104
551.7540	0.018357
552.4308	0.026249
553.1077	0.022387
553.7847	0.025511
554.4618	0.023506
555.1390	0.024012
555.8163	0.024223
556.4937	0.025468
557.1712	0.024920
557.8488	0.026798
558.5266	0.025637
559.2044	0.026080
559.8823	0.026460
560.5603	0.031503
561.2384	0.034964
561.9166	0.035196
562.5949	0.032221
563.2733	0.036568
563.9519	0.035703
564.6305	0.036969
565.3092	0.042730
565.9880	0.041126
566.6669	0.041274
567.3459	0.050094
568.0250	0.055307
568.7043	0.063030
569.3836	0.075923
570.0630	0.098798
570.7425	0.105149
571.4221	0.123909
572.1018	0.135156
572.7816	0.117325
573.4615	0.140453
574.1415	0.157166
574.8216	0.170312
575.5018	0.173372
576.1821	0.155541
576.8626	0.181180
577.5431	0.192195
578.2237	0.238894
578.9044	0.199117
579.5851	0.201227
580.2660	0.205088
580.9470	0.203063
581.6281	0.313405
582.3093	0.298380
582.9906	0.235855
583.6720	0.197745
584.3535	0.196458
585.0351	0.223194
585.7167	0.229757
586.3985	0.203506
587.0804	0.210533
587.7624	0.223616
588.4445	0.204265
589.1266	0.177381
589.8089	0.162948
590.4913	0.145834
591.1737	0.131928
591.8563	0.131675
592.5389	0.154655
593.2217	0.200214
593.9046	0.188840
594.5875	0.170249
595.2705	0.197787
595.9537	0.172528
596.6369	0.144336
597.3203	0.148008
598.0037	0.147712
598.6872	0.152734
599.3709	0.183248
600.0546	0.178880
600.7384	0.183290
601.4223	0.187088
602.1064	0.166619
602.7905	0.171768
603.4747	0.185864
604.1590	0.173541
604.8434	0.154465
605.5279	0.162230
606.2125	0.171853
606.8972	0.156364
607.5819	0.156301
608.2668	0.150687
608.9518	0.143555
609.6369	0.133869
610.3220	0.152840
611.0073	0.139461
611.6927	0.141635
612.3781	0.128636
613.0637	0.132582
613.7493	0.124795
614.4351	0.129206
615.1209	0.125407
615.8068	0.134144
616.4929	0.116017
617.1790	0.112957
617.8652	0.109095
618.5515	0.104115
619.2379	0.091707
619.9244	0.095358
620.6110	0.093459
621.2977	0.076999
621.9845	0.080017
622.6714	0.085799
623.3584	0.088669
624.0454	0.086622
624.7326	0.089196
625.4199	0.086453
626.1072	0.078941
626.7947	0.070141
627.4822	0.072083
628.1698	0.064507
628.8576	0.057290
629.5454	0.063874
630.2333	0.059147
630.9213	0.058155
631.6094	0.054927
632.2976	0.052247
632.9859	0.045621
633.6743	0.044439
634.3628	0.043764
635.0514	0.044249
635.7400	0.041295
636.4288	0.047457
637.1177	0.045431
637.8066	0.040430
638.4957	0.044903
639.1848	0.043257
639.8740	0.039680
640.5633	0.038542
641.2528	0.036626
641.9423	0.033039
642.6319	0.031191
643.3216	0.030821
644.0113	0.031151
644.7012	0.028557
645.3912	0.027692
646.0812	0.026600
646.7714	0.025568
647.4616	0.025691
648.1520	0.031300
648.8424	0.033898
649.5329	0.035276
650.2236	0.030372
650.9143	0.030394
651.6051	0.028077
652.2960	0.030958
652.9870	0.035404
653.6780	0.033029
654.3692	0.035712
655.0605	0.065576
655.7518	0.956971
656.4433	1.000000
657.1348	0.868035
657.8264	0.529868
658.5181	0.409463
659.2099	0.337136
659.9018	0.103492
660.5938	0.032033
661.2859	0.025228
661.9781	0.023660
662.6704	0.022497
663.3627	0.023886
664.0552	0.020912
664.7477	0.023669
665.4403	0.025703
666.1330	0.024433
666.8259	0.023908
667.5188	0.023441
668.2117	0.022333
668.9048	0.023548
669.5980	0.022999
670.2913	0.023780
670.9846	0.022894
671.6781	0.028423
672.3716	0.037285
673.0652	0.032559
673.7589	0.029098
674.4527	0.029478
675.1466	0.029794
675.8406	0.027325
676.5347	0.026418
677.2288	0.023147
677.9231	0.028296
678.6174	0.032200
679.3119	0.035450
680.0064	0.036125
680.7010	0.033677
681.3957	0.035049
682.0905	0.032727
682.7854	0.030955
683.4803	0.030955
684.1754	0.033930
684.8705	0.040409
685.5658	0.045811
686.2611	0.045051
686.9565	0.043088
687.6520	0.045093
688.3476	0.042624
689.0433	0.037897
689.7390	0.037876
690.4349	0.034964
691.1308	0.037897
691.8269	0.040387
692.5230	0.037834
693.2192	0.039797
693.9155	0.037729
694.6119	0.036948
695.3083	0.035808
696.0049	0.031672
696.7016	0.038277
697.3983	0.039100
698.0951	0.039839
698.7920	0.038530
699.4890	0.034859
700.1861	0.032559
700.8833	0.030195
701.5806	0.029013
702.2779	0.028739
702.9753	0.031947
703.6729	0.029900
704.3705	0.030448
705.0682	0.025152
705.7660	0.024054
706.4638	0.030659
707.1618	0.037159
707.8599	0.036716
708.5580	0.036505
709.2562	0.036062
709.9545	0.034690
710.6529	0.037349
711.3514	0.034162
712.0500	0.028359
712.7486	0.030322
713.4474	0.032685
714.1462	0.034964
714.8451	0.033930
715.5441	0.034310
716.2432	0.031103
716.9424	0.029794
717.6416	0.026713
718.3410	0.029647
719.0404	0.031166
719.7399	0.030491
720.4395	0.030301
721.1392	0.030997
721.8390	0.030301
722.5388	0.029288
723.2388	0.027156
723.9388	0.030090
724.6389	0.028148
725.3391	0.031377
726.0394	0.035513
726.7398	0.034205
727.4403	0.034394
728.1408	0.033508
728.8414	0.035302
729.5421	0.036547
730.2429	0.037307
730.9438	0.044671
731.6448	0.042519
732.3458	0.042244
733.0470	0.044502
733.7482	0.046190
734.4495	0.051930
735.1509	0.047604
735.8524	0.048216
736.5539	0.050432
737.2556	0.048681
737.9573	0.043975
738.6591	0.039754
739.3610	0.048047
740.0630	0.045199
740.7651	0.039248
741.4672	0.037644
742.1695	0.033002
742.8718	0.033951
743.5742	0.033867
744.2767	0.031145
744.9792	0.031187
745.6819	0.028486
746.3846	0.028148
747.0874	0.031335
747.7903	0.032812
748.4933	0.027705
749.1964	0.031081
749.8995	0.037454
750.6028	0.040936
751.3061	0.038003
752.0095	0.040050
752.7130	0.036251
753.4166	0.039058
754.1202	0.042477
754.8239	0.041295
755.5278	0.044566
756.2317	0.046845
756.9356	0.052078
757.6397	0.061785
758.3438	0.059189
759.0481	0.055581
759.7524	0.060139
760.4568	0.062439
761.1613	0.061110
761.8658	0.052627
762.5705	0.047056
763.2752	0.049799
763.9800	0.048596
764.6849	0.059548
765.3898	0.056594
766.0949	0.047499
766.8000	0.042540
767.5052	0.038003
768.2105	0.043890
768.9159	0.049187
769.6214	0.047794
770.3269	0.044270
771.0325	0.047309
771.7382	0.046022
772.4440	0.041042
773.1499	0.040303
773.8558	0.038784
774.5618	0.034690
775.2679	0.032200
775.9741	0.028971
776.6804	0.026692
777.3868	0.025806
778.0932	0.026608
778.7997	0.029710
779.5063	0.031503
780.2130	0.029372
780.9197	0.030385
781.6265	0.034690
782.3335	0.036378
783.0405	0.034985
783.7475	0.035914
784.4547	0.030364
785.1619	0.030406
785.8692	0.029836
786.5766	0.029330
787.2841	0.028169
787.9917	0.030301
788.6993	0.031567
789.4070	0.031039
790.1148	0.027178
790.8227	0.025785
791.5306	0.025173
792.2387	0.023358
792.9468	0.021164
793.6550	0.025257
794.3632	0.033192
795.0716	0.033867
795.7800	0.029309
796.4885	0.024287
797.1971	0.022366
797.9058	0.024561
798.6145	0.023253
799.3233	0.024540
800.0322	0.021438
800.7412	0.020699
801.4503	0.020298
802.1594	0.018737
802.8686	0.016753
803.5779	0.020910
804.2873	0.017049
804.9968	0.016162
805.7063	0.019117
806.4159	0.023443
807.1256	0.024814
807.8354	0.024076
808.5452	0.023379
809.2551	0.022029
809.9651	0.021269
810.6752	0.020763
811.3853	0.018484
812.0956	0.016922
812.8059	0.015487
813.5163	0.017703
814.2267	0.019707
814.9373	0.017239
815.6479	0.015572
816.3586	0.013482
817.0694	0.015951
817.7802	0.016141
818.4912	0.014115
819.2022	0.015192
819.9133	0.014031
820.6244	0.014812
821.3357	0.016226
822.0470	0.014791
822.7584	0.013588
823.4698	0.011984
824.1814	0.011267
824.8930	0.012258
825.6047	0.013926
826.3165	0.013187
827.0283	0.014369
827.7402	0.014411
828.4522	0.013018
829.1643	0.014917
829.8765	0.012681
830.5887	0.011013
831.3010	0.009283
832.0134	0.008207
832.7259	0.009220
833.4384	0.010486
834.1510	0.009579
834.8637	0.010380
835.5765	0.010486
836.2893	0.010908
837.0022	0.009283
837.7152	0.007954
838.4283	0.007089
839.1414	0.008566
839.8546	0.008502
840.5679	0.007257
841.2813	0.007004
841.9947	0.006582
842.7082	0.006540
843.4218	0.005379
844.1355	0.006076
844.8492	0.004978
845.5631	0.006455
846.2770	0.005569
846.9909	0.004704
847.7050	0.005274
848.4191	0.007574
849.1333	0.003987
849.8475	0.005379
850.5619	0.005970
851.2763	0.003691
851.9908	0.006160
852.7053	0.009557
853.4200	0.014411
854.1347	0.013504
854.8495	0.012913
855.5643	0.013187
856.2792	0.014326
856.9942	0.012659
857.7093	0.010486
858.4245	0.010802
859.1397	0.010338
859.8550	0.009790
860.5704	0.008101
861.2858	0.006624
862.0013	0.007869
862.7169	0.007574
863.4326	0.007152
864.1483	0.007574
864.8642	0.007152
865.5800	0.005991
866.2960	0.005105
867.0120	0.005780
867.7281	0.004366
868.4443	0.005759
869.1606	0.005907
869.8769	0.006413
870.5933	0.005611
871.3097	0.006666
872.0263	0.006308
872.7429	0.005801
873.4596	0.005654
874.1763	0.005274
874.8932	0.005632
875.6101	0.006962
876.3270	0.005337
877.0441	0.005970
877.7612	0.007827
878.4784	0.006920
879.1957	0.007785
879.9130	0.008882
880.6304	0.006751
881.3479	0.007489
882.0654	0.007067
882.7831	0.005759
883.5007	0.007067
884.2185	0.006666
884.9363	0.007954
885.6542	0.007468
886.3722	0.007511
887.0903	0.006118
887.8084	0.006308
888.5266	0.005295
889.2448	0.007996
889.9632	0.005443
890.6816	0.005991
891.4001	0.005590
892.1186	0.007426
892.8372	0.005991
893.5559	0.005949
894.2747	0.005675
894.9935	0.004704
895.7124	0.005569
896.4314	0.006666
897.1504	0.005590
897.8695	0.006519
898.5887	0.004873
899.3079	0.005590
900.0272	0.004113
900.7466	0.005907
901.4661	0.002699
902.1856	0.005443
902.9052	0.003417
903.6249	0.004641
904.3446	0.004894
905.0644	0.005569
905.7843	0.005843
906.5043	0.004662
907.2243	0.004535
907.9444	0.005506
908.6645	0.001982
909.3847	0.004704
910.1050	0.002910
910.8254	0.005759
911.5458	0.005168
912.2663	0.005443
912.9869	0.004113
913.7075	0.003923
914.4283	0.004683
915.1490	0.003332
915.8699	0.003501
916.5908	0.004472
917.3118	0.004155
918.0328	0.004831
918.7539	0.004915
919.4751	0.003797
920.1964	0.004662
920.9177	0.003142
921.6391	0.003860
922.3606	0.003058
923.0821	0.003037
923.8037	0.003121
924.5254	0.004113
925.2471	0.001750
925.9689	0.003881
926.6908	0.002467
927.4127	0.002699
928.1347	0.002953
928.8568	0.002172
929.5789	0.002594
930.3011	0.003543
931.0234	0.004641
931.7457	0.001876
932.4681	0.002615
933.1906	0.001623
933.9131	0.003881
934.6358	0.004134
935.3584	0.003459
936.0812	0.002974
936.8040	0.001897
937.5269	0.000906
938.2498	0.001560
938.9728	0.002256
939.6959	0.001285
940.4190	0.001581
941.1422	0.002130
941.8655	0.001686
942.5889	0.001159
943.3123	0.001539
944.0357	0.002319
944.7593	0.002425
945.4829	0.001412
946.2066	0.002362
946.9303	0.003100
947.6541	0.001264
948.3780	0.002108
949.1019	0.001560
949.8259	0.002720
950.5500	0.002130
951.2741	0.001159
951.9983	0.001496
952.7226	0.002446
953.4469	0.001982
954.1713	0.001518
954.8958	0.001581
955.6203	0.001792
956.3449	0.002003
957.0696	0.002446
957.7943	0.001961
958.5191	0.000273
959.2439	0.001602
959.9688	0.001940
960.6938	0.001855
961.4189	0.000336
962.1440	0.000167
962.8692	0.001074
963.5944	0.001729
964.3197	0.000758
965.0451	0.000251
965.7705	-0.000065
966.4960	0.001708
967.2216	0.000273
967.9472	0.002615
968.6729	0.001665
969.3987	0.001644
970.1245	0.001349
970.8504	0.002277
971.5763	-0.000677
972.3023	0.001011
973.0284	0.001222
973.7545	0.001834
974.4807	0.002319
975.2070	0.001159
975.9333	0.000610
976.6597	0.001370
977.3862	0.000062
978.1127	0.001729
978.8393	0.002087
979.5659	0.001792
980.2926	0.000969
981.0194	0.000547
981.7462	0.001623
982.4731	0.002045
983.2001	-0.000149
983.9271	0.001708
984.6542	0.000019
985.3814	0.001602
986.1086	0.000104
986.8358	0.000927
987.5632	-0.000276
988.2906	0.001792
989.0180	0.001729
989.7456	0.000800
990.4732	-0.000128
991.2008	0.000737
991.9285	0.000040
992.6563	0.001264
993.3841	-0.000213
994.1120	0.002066
994.8400	-0.000086
995.5680	0.000800
996.2961	0.000948
997.0242	0.002446
997.7524	0.001370
998.4807	0.001750
999.2090	-0.000234
999.9374	0.000758
1000.67	0.001307
1001.39	-0.000445
1002.12	0.000209
1002.85	0.000294
1003.58	0.000821
1004.31	0.000948
1005.04	0.001644
1005.77	0.000505
1006.5	-0.000445
1007.22	0.000104
1007.95	0.000758
1008.68	0.001961
1009.41	0.000906
1010.14	0.000378
1010.87	0.001834
1011.6	-0.000403
1012.33	0.000948
1013.06	0.000462
1013.79	0.001138
1014.52	0.000758
1015.25	0.001771
1015.98	0.001243
1016.71	0.002573
1017.44	0.000336
1018.17	0.000125
1018.9	0.001011
1019.63	0.000737
1020.36	0.000969
1021.09	0.001053
1021.82	0.000399
1022.55	0.000568
1023.03	0.000758