File: Auto_Polymerization/Spectra/spectrum_2025-06-19_12-04-25.txt
# Wavelength (nm)	Intensity (a.u.)
197.7802	-0.000616
198.3922	-0.000447
199.0044	0.001179
199.6168	-0.000911
200.2292	0.000947
200.8418	0.001031
201.4546	0.001179
202.0674	-0.000109
202.6805	0.000334
203.2936	0.000334
203.9069	0.000060
204.5203	-0.000130
205.1338	0.000461
205.7475	-0.000236
206.3614	0.000799
206.9753	0.001496
207.5894	0.000208
208.2036	-0.001207
208.8180	-0.000215
209.4325	0.000757
210.0471	0.000398
210.6618	-0.000088
211.2767	0.002066
211.8918	0.001390
212.5069	-0.000595
213.1222	0.000841
213.7376	0.000651
214.3532	-0.001101
214.9689	0.001348
215.5847	0.000398
216.2007	0.000651
216.8168	0.000144
217.4330	0.000039
218.0494	0.001010
218.6659	-0.000320
219.2825	-0.001038
219.8992	0.000377
220.5161	0.000503
221.1332	0.000461
221.7503	-0.000426
222.3676	-0.000194
222.9850	0.000039
223.6026	0.000440
224.2203	0.000144
224.8381	-0.000447
225.4561	-0.001735
226.0742	0.000187
226.6924	0.000081
227.3107	0.001010
227.9292	-0.000426
228.5478	0.001643
229.1666	0.000714
229.7855	0.000503
230.4045	-0.000257
231.0236	0.000398
231.6429	-0.000151
232.2623	0.000461
232.8818	0.000630
233.5015	0.000334
234.1213	-0.000215
234.7413	0.000081
235.3613	0.000250
235.9815	0.000672
236.6018	0.000482
237.2223	-0.000004
237.8429	-0.000088
238.4636	-0.000151
239.0845	0.000778
239.7055	0.000208
240.3266	-0.000975
240.9478	0.000968
241.5692	0.001221
242.1907	0.001643
242.8124	0.000461
243.4341	0.000102
244.0560	0.001094
244.6781	0.000757
245.3002	-0.000362
245.9225	0.001179
246.5449	0.000735
247.1675	0.000271
247.7902	-0.000742
248.4130	0.000039
249.0359	-0.000194
249.6590	-0.000130
250.2822	-0.001587
250.9056	0.000524
251.5290	0.000398
252.1526	0.000841
252.7763	0.000968
253.4002	0.000334
254.0242	0.000735
254.6483	0.000883
255.2725	-0.000109
255.8969	0.000018
256.5214	-0.002537
257.1460	0.000229
257.7708	-0.002495
258.3957	-0.000447
259.0207	-0.000721
259.6459	0.000904
260.2711	0.001242
260.8965	0.000377
261.5221	0.000123
262.1477	0.000503
262.7735	0.000883
263.3995	0.001031
264.0255	-0.000299
264.6517	0.000799
265.2780	-0.000933
265.9044	-0.000299
266.5310	0.000524
267.1577	0.002530
267.7845	-0.000975
268.4114	-0.000552
269.0385	-0.000869
269.6657	0.000630
270.2931	0.000735
270.9205	0.001390
271.5481	0.000757
272.1758	0.001538
272.8037	-0.000510
273.4316	-0.000299
274.0597	-0.000194
274.6880	0.000567
275.3163	0.000102
275.9448	-0.000088
276.5734	0.000841
277.2022	0.000144
277.8310	0.000989
278.4600	0.000757
279.0891	-0.000447
279.7184	0.000672
280.3477	0.001242
280.9772	-0.000341
281.6069	-0.000341
282.2366	-0.000046
282.8665	-0.000447
283.4965	0.001306
284.1266	0.000904
284.7569	0.000018
285.3873	0.000292
286.0178	0.000503
286.6484	-0.000130
287.2792	0.000250
287.9101	-0.000109
288.5411	0.001242
289.1723	0.000630
289.8035	0.001791
290.4349	-0.000299
291.0665	0.000925
291.6981	0.000039
292.3299	0.001094
292.9618	0.000018
293.5938	-0.000172
294.2260	0.000060
294.8582	0.000313
295.4906	-0.000194
296.1232	0.000123
296.7558	0.000461
297.3886	0.001496
298.0215	0.000018
298.6545	0.000187
299.2877	-0.000595
299.9210	0.001327
300.5544	-0.001186
301.1879	-0.000384
301.8215	0.000757
302.4553	-0.000785
303.0892	-0.000510
303.7233	-0.001017
304.3574	0.000081
304.9917	0.000925
305.6261	-0.000806
306.2606	0.000820
306.8953	0.001010
307.5301	0.000820
308.1650	-0.000278
308.8000	-0.000067
309.4351	-0.000362
310.0704	0.001833
310.7058	0.000693
311.3413	0.000018
311.9770	-0.000489
312.6127	0.000039
313.2486	-0.000172
313.8846	0.000588
314.5208	-0.000004
315.1570	0.000925
315.7934	-0.000109
316.4299	0.000187
317.0666	-0.000679
317.7033	0.000313
318.3402	-0.000426
318.9772	0.002256
319.6143	0.001686
320.2516	-0.000109
320.8890	0.000482
321.5265	0.001094
322.1641	0.000060
322.8018	0.001116
323.4397	-0.001101
324.0777	0.001348
324.7158	0.000609
325.3540	0.000503
325.9924	0.001010
326.6308	0.000039
327.2694	-0.000405
327.9082	0.000271
328.5470	-0.000362
329.1860	0.000482
329.8251	-0.000552
330.4643	-0.000067
331.1036	0.000883
331.7431	0.001052
332.3826	0.000904
333.0223	-0.000172
333.6622	0.000968
334.3021	0.000039
334.9422	-0.000531
335.5823	0.000925
336.2227	0.000588
336.8631	0.001390
337.5036	-0.000236
338.1443	0.001200
338.7851	0.000968
339.4260	0.001474
340.0670	-0.000088
340.7082	0.000250
341.3495	0.000250
341.9909	-0.000046
342.6324	-0.000320
343.2740	0.001327
343.9158	0.001369
344.5577	0.000545
345.1997	-0.000679
345.8418	0.001728
346.4840	-0.000552
347.1264	0.000545
347.7689	0.000503
348.4115	0.000461
349.0542	0.000039
349.6971	0.000735
350.3400	-0.000341
350.9831	-0.000510
351.6263	0.000060
352.2696	0.001031
352.9131	0.001158
353.5566	0.000841
354.2003	-0.000004
354.8441	0.000313
355.4881	-0.001017
356.1321	0.000271
356.7763	0.000820
357.4206	0.000524
358.0650	-0.000679
358.7095	0.000165
359.3541	0.000925
359.9989	0.001010
360.6438	-0.000658
361.2888	0.000567
361.9339	-0.002199
362.5791	0.000503
363.2245	0.001094
363.8699	0.001094
364.5155	0.000947
365.1612	0.000588
365.8071	-0.000025
366.4530	-0.000109
367.0991	-0.000109
367.7453	0.001242
368.3916	0.000229
369.0380	-0.000109
369.6845	0.001263
370.3312	-0.001165
370.9780	-0.000510
371.6249	0.001411
372.2719	0.000018
372.9190	0.000757
373.5663	0.000862
374.2136	0.001643
374.8611	-0.000468
375.5087	0.000567
376.1564	-0.000447
376.8043	0.000165
377.4522	0.000651
378.1003	0.000461
378.7485	-0.000194
379.3968	0.000735
380.0452	-0.000616
380.6938	0.000165
381.3424	0.000757
381.9912	-0.000046
382.6401	-0.000489
383.2891	0.000123
383.9382	0.000820
384.5875	0.000334
385.2368	-0.000257
385.8863	0.000503
386.5359	-0.000130
387.1856	-0.000278
387.8355	0.000377
388.4854	0.000651
389.1355	0.000144
389.7856	0.000714
390.4359	-0.000848
391.0863	0.001876
391.7369	0.001749
392.3875	0.002995
393.0383	0.000925
393.6891	0.001707
394.3401	0.002952
394.9912	0.003691
395.6425	0.003079
396.2938	0.003354
396.9453	0.001939
397.5968	0.004810
398.2485	0.004747
398.9003	0.003586
399.5522	0.005444
400.2043	0.004029
400.8564	0.004958
401.5087	0.005570
402.1610	0.005951
402.8135	0.005739
403.4661	0.006014
404.1189	0.005127
404.7717	0.007703
405.4246	0.009160
406.0777	0.008949
406.7309	0.007851
407.3842	0.008801
408.0376	0.007977
408.6911	0.009835
409.3448	0.007830
409.9985	0.011883
410.6524	0.009667
411.3064	0.010933
411.9605	0.011081
412.6147	0.012538
413.2690	0.011018
413.9234	0.013446
414.5780	0.011440
415.2326	0.012116
415.8874	0.013150
416.5423	0.013678
417.1973	0.012728
417.8524	0.015072
418.5077	0.014354
419.1630	0.016507
419.8185	0.016043
420.4741	0.018154
421.1298	0.018070
421.7856	0.019273
422.4415	0.017901
423.0975	0.020012
423.7536	0.016254
424.4099	0.017457
425.0663	0.019548
425.7228	0.018724
426.3793	0.018070
427.0361	0.017795
427.6929	0.017394
428.3498	0.019252
429.0068	0.019527
429.6640	0.022651
430.3213	0.021532
430.9787	0.022187
431.6362	0.019505
432.2938	0.018978
432.9515	0.017457
433.6093	0.021722
434.2673	0.021279
434.9253	0.021279
435.5835	0.022546
436.2418	0.020983
436.9001	0.024235
437.5586	0.021490
438.2173	0.022947
438.8760	0.021870
439.5348	0.021849
440.1938	0.022102
440.8528	0.022947
441.5120	0.026621
442.1713	0.025628
442.8307	0.026663
443.4902	0.022694
444.1498	0.025481
444.8095	0.025713
445.4694	0.025924
446.1293	0.023686
446.7894	0.024657
447.4496	0.023601
448.1098	0.023792
448.7702	0.023517
449.4307	0.023411
450.0914	0.023221
450.7521	0.022018
451.4129	0.017584
452.0739	0.021406
452.7349	0.019864
453.3961	0.019738
454.0574	0.018175
454.7188	0.017647
455.3803	0.017436
456.0419	0.017795
456.7036	0.017331
457.3654	0.016634
458.0274	0.018809
458.6894	0.018766
459.3516	0.017373
460.0138	0.018027
460.6762	0.016001
461.3387	0.016845
462.0013	0.012369
462.6640	0.012939
463.3268	0.013087
463.9897	0.014227
464.6528	0.015367
465.3159	0.014839
465.9792	0.014544
466.6425	0.012137
467.3060	0.010828
467.9696	0.011630
468.6333	0.011926
469.2970	0.010152
469.9610	0.009181
470.6250	0.010469
471.2891	0.009540
471.9533	0.006964
472.6177	0.009920
473.2821	0.009223
473.9467	0.009434
474.6113	0.007914
475.2761	0.008906
475.9410	0.008125
476.6060	0.008167
477.2711	0.006795
477.9363	0.007576
478.6016	0.007809
479.2670	0.007091
479.9325	0.006183
480.5982	0.007302
481.2639	0.005697
481.9298	0.006521
482.5957	0.006478
483.2618	0.005908
483.9280	0.004219
484.5943	0.007471
485.2606	0.007471
485.9271	0.018661
486.5937	0.012876
487.2605	0.009857
487.9273	0.005317
488.5942	0.004557
489.2612	0.004473
489.9284	0.004620
490.5956	0.004071
491.2630	0.004156
491.9304	0.004029
492.5980	0.005444
493.2657	0.004261
493.9334	0.004198
494.6013	0.004599
495.2693	0.004325
495.9374	0.004599
496.6056	0.004958
497.2739	0.003607
497.9423	0.004388
498.6109	0.002298
499.2795	0.004261
499.9482	0.003417
500.6171	0.003100
501.2860	0.003881
501.9551	0.004240
502.6242	0.002636
503.2935	0.003375
503.9628	0.003522
504.6323	0.002826
505.3019	0.002488
505.9716	0.004578
506.6414	0.002509
507.3113	0.003860
507.9813	0.002572
508.6514	0.003522
509.3216	0.001981
509.9919	0.003248
510.6623	0.003565
511.3329	0.002256
512.0035	0.002425
512.6742	0.004620
513.3451	0.003227
514.0160	0.003776
514.6871	0.002361
515.3582	0.003037
516.0295	0.003417
516.7008	0.002023
517.3723	0.002509
518.0439	0.002910
518.7155	0.003290
519.3873	0.002783
520.0592	0.002889
520.7312	0.003459
521.4033	0.003185
522.0755	0.002995
522.7478	0.003100
523.4202	0.002720
524.0927	0.004156
524.7653	0.002171
525.4380	0.003755
526.1108	0.003881
526.7837	0.003396
527.4568	0.004853
528.1299	0.004346
528.8031	0.004895
529.4765	0.006457
530.1499	0.004008
530.8234	0.006478
531.4971	0.004831
532.1708	0.005528
532.8447	0.005866
533.5186	0.006457
534.1927	0.008104
534.8668	0.008442
535.5411	0.007196
536.2155	0.007745
536.8899	0.007428
537.5645	0.008167
538.2392	0.007830
538.9139	0.010490
539.5888	0.009286
540.2638	0.010617
540.9389	0.011060
541.6140	0.011313
542.2893	0.012327
542.9647	0.013847
543.6402	0.013235
544.3158	0.012812
544.9915	0.013657
545.6673	0.014692
546.3432	0.016212
547.0192	0.015304
547.6953	0.016486
548.3715	0.021216
549.0478	0.019273
549.7242	0.017837
550.4007	0.019315
551.0773	0.017352
551.7540	0.017605
552.4308	0.021997
553.1077	0.020413
553.7847	0.022250
554.4618	0.022039
555.1390	0.022314
555.8163	0.022504
556.4937	0.024889
557.1712	0.023348
557.8488	0.025692
558.5266	0.025924
559.2044	0.025143
559.8823	0.022715
560.5603	0.029724
561.2384	0.033398
561.9166	0.033799
562.5949	0.032723
563.2733	0.034032
563.9519	0.036333
564.6305	0.037368
565.3092	0.037684
565.9880	0.038381
566.6669	0.039204
567.3459	0.047882
568.0250	0.053456
568.7043	0.062134
569.3836	0.074169
570.0630	0.094522
570.7425	0.099230
571.4221	0.121547
572.1018	0.134490
572.7816	0.114517
573.4615	0.135757
574.1415	0.155118
574.8216	0.163099
575.5018	0.167280
576.1821	0.152247
576.8626	0.174268
577.5431	0.187823
578.2237	0.231634
578.9044	0.195825
579.5851	0.194347
580.2660	0.205157
580.9470	0.200491
581.6281	0.309670
582.3093	0.297297
582.9906	0.232352
583.6720	0.194305
584.3535	0.190969
585.0351	0.218037
585.7167	0.227115
586.3985	0.196269
587.0804	0.206635
587.7624	0.222682
588.4445	0.194959
589.1266	0.166308
589.8089	0.161473
590.4913	0.145807
591.1737	0.127945
591.8563	0.132822
592.5389	0.151719
593.2217	0.199372
593.9046	0.187675
594.5875	0.167871
595.2705	0.195382
595.9537	0.168145
596.6369	0.141310
597.3203	0.148678
598.0037	0.143907
598.6872	0.153577
599.3709	0.178491
600.0546	0.179652
600.7384	0.178322
601.4223	0.179251
602.1064	0.163205
602.7905	0.169349
603.4747	0.185817
604.1590	0.171840
604.8434	0.152775
605.5279	0.160777
606.2125	0.169412
606.8972	0.151719
607.5819	0.158264
608.2668	0.147327
608.9518	0.137953
609.6369	0.129655
610.3220	0.146462
611.0073	0.134891
611.6927	0.136095
612.3781	0.127269
613.0637	0.129085
613.7493	0.124461
614.4351	0.125285
615.1209	0.123469
615.8068	0.129381
616.4929	0.110716
617.1790	0.110062
617.8652	0.110547
618.5515	0.100835
619.2379	0.091651
619.9244	0.093340
620.6110	0.095979
621.2977	0.073704
621.9845	0.079109
622.6714	0.082698
623.3584	0.090046
624.0454	0.085485
624.7326	0.089560
625.4199	0.085000
626.1072	0.078455
626.7947	0.069080
627.4822	0.070094
628.1698	0.066378
628.8576	0.057616
629.5454	0.061838
630.2333	0.063802
630.9213	0.054385
631.6094	0.051598
632.2976	0.051134
632.9859	0.044039
633.6743	0.043892
634.3628	0.044018
635.0514	0.040767
635.7400	0.040936
636.4288	0.045095
637.1177	0.043955
637.8066	0.040387
638.4957	0.041717
639.1848	0.041231
639.8740	0.038679
640.5633	0.034731
641.2528	0.034614
641.9423	0.031443
642.6319	0.027266
643.3216	0.030426
644.0113	0.030212
644.7012	0.028638
645.3912	0.026675
646.0812	0.025275
646.7714	0.024713
647.4616	0.024571
648.1520	0.028570
648.8424	0.033021
649.5329	0.031376
650.2236	0.029903
650.9143	0.028496
651.6051	0.029022
652.2960	0.032474
652.9870	0.031266
653.6780	0.031973
654.3692	0.033612
655.0605	0.066464
655.7518	0.955151
656.4433	1.000000
657.1348	0.870559
657.8264	0.532205
658.5181	0.412445
659.2099	0.330456
659.9018	0.098364
660.5938	0.030931
661.2859	0.025304
661.9781	0.022062
662.6704	0.022401
663.3627	0.020733
664.0552	0.021387
664.7477	0.022274
665.4403	0.023358
666.1330	0.022827
666.8259	0.020382
667.5188	0.020963
668.2117	0.020836
668.9048	0.020793
669.5980	0.021026
670.2913	0.023792
670.9846	0.019885
671.6781	0.028817
672.3716	0.033187
673.0652	0.031202
673.7589	0.031625
674.4527	0.028162
675.1466	0.026008
675.8406	0.026008
676.5347	0.025164
677.2288	0.024235
677.9231	0.026114
678.6174	0.030252
679.3119	0.032786
680.0064	0.036249
680.7010	0.033039
681.3957	0.035235
682.0905	0.032997
682.7854	0.028901
683.4803	0.030316
684.1754	0.035298
684.8705	0.038149
685.5658	0.046151
686.2611	0.045180
686.9565	0.044145
687.6520	0.044208
688.3476	0.039479
689.0433	0.035636
689.7390	0.034918
690.4349	0.034243
691.1308	0.037494
691.8269	0.039352
692.5230	0.038149
693.2192	0.039458
693.9155	0.037895
694.6119	0.033145
695.3083	0.037558
696.0049	0.030147
696.7016	0.037304
697.3983	0.037811
698.0951	0.037199
698.7920	0.038128
699.4890	0.036059
700.1861	0.031477
700.8833	0.030294
701.5806	0.028795
702.2779	0.031308
702.9753	0.030358
703.6729	0.026473
704.3705	0.030147
705.0682	0.024362
705.7660	0.023559
706.4638	0.030210
707.1618	0.038318
707.8599	0.037874
708.5580	0.036988
709.2562	0.033736
709.9545	0.033293
710.6529	0.035383
711.3514	0.033630
712.0500	0.029724
712.7486	0.031160
713.4474	0.031477
714.1462	0.034623
714.8451	0.034053
715.5441	0.034391
716.2432	0.029323
716.9424	0.027930
717.6416	0.028289
718.3410	0.028648
719.0404	0.029661
719.7399	0.028922
720.4395	0.026051
721.1392	0.031308
721.8390	0.031899
722.5388	0.028141
723.2388	0.027550
723.9388	0.028690
724.6389	0.025291
725.3391	0.031435
726.0394	0.034243
726.7398	0.033398
727.4403	0.034116
728.1408	0.033229
728.8414	0.033820
729.5421	0.036164
730.2429	0.036143
730.9438	0.044398
731.6448	0.043153
732.3458	0.039648
733.0470	0.043132
733.7482	0.046277
734.4495	0.051788
735.1509	0.048874
735.8524	0.049276
736.5539	0.047418
737.2556	0.049677
737.9573	0.043723
738.6591	0.038107
739.3610	0.046826
740.0630	0.045095
740.7651	0.041485
741.4672	0.033356
742.1695	0.032934
742.8718	0.034391
743.5742	0.031498
744.2767	0.027909
744.9792	0.029408
745.6819	0.027529
746.3846	0.027972
747.0874	0.029112
747.7903	0.030822
748.4933	0.029302
749.1964	0.031878
749.8995	0.036776
750.6028	0.039563
751.3061	0.037452
752.0095	0.040915
752.7130	0.036249
753.4166	0.037346
754.1202	0.042667
754.8239	0.040366
755.5278	0.041844
756.2317	0.044251
756.9356	0.051345
757.6397	0.057088
758.3438	0.056898
759.0481	0.054216
759.7524	0.061627
760.4568	0.062028
761.1613	0.062218
761.8658	0.049930
762.5705	0.049339
763.2752	0.048706
763.9800	0.049149
764.6849	0.055715
765.3898	0.056982
766.0949	0.049487
766.8000	0.041823
767.5052	0.037346
768.2105	0.042794
768.9159	0.048917
769.6214	0.047228
770.3269	0.043153
771.0325	0.048642
771.7382	0.043596
772.4440	0.041274
773.1499	0.039331
773.8558	0.037874
774.5618	0.033314
775.2679	0.030020
775.9741	0.026600
776.6804	0.025164
777.3868	0.025312
778.0932	0.024193
778.7997	0.027106
779.5063	0.032997
780.2130	0.028373
780.9197	0.032870
781.6265	0.034369
782.3335	0.033884
783.0405	0.033356
783.7475	0.034813
784.4547	0.029133
785.1619	0.029640
785.8692	0.029513
786.5766	0.026452
787.2841	0.027402
787.9917	0.030126
788.6993	0.033145
789.4070	0.030548
790.1148	0.027317
790.8227	0.025882
791.5306	0.023982
792.2387	0.023707
792.9468	0.021089
793.6550	0.023644
794.3632	0.031350
795.0716	0.032068
795.7800	0.029936
796.4885	0.023517
797.1971	0.022145
797.9058	0.024066
798.6145	0.022694
799.3233	0.019505
800.0322	0.020519
800.7412	0.019252
801.4503	0.019759
802.1594	0.017457
802.8686	0.016402
803.5779	0.018386
804.2873	0.014248
804.9968	0.017795
805.7063	0.016106
806.4159	0.025312
807.1256	0.022694
807.8354	0.022102
808.5452	0.023010
809.2551	0.021279
809.9651	0.019421
810.6752	0.018724
811.3853	0.019505
812.0956	0.018091
812.8059	0.015177
813.5163	0.015029
814.2267	0.018851
814.9373	0.017035
815.6479	0.015029
816.3586	0.014776
817.0694	0.014248
817.7802	0.012411
818.4912	0.013931
819.2022	0.011968
819.9133	0.013087
820.6244	0.013383
821.3357	0.014375
822.0470	0.014903
822.7584	0.011567
823.4698	0.012601
824.1814	0.011039
824.8930	0.010110
825.6047	0.013678
826.3165	0.011841
827.0283	0.014016
827.7402	0.013741
828.4522	0.012369
829.1643	0.013214
829.8765	0.011905
830.5887	0.009603
831.3010	0.009709
832.0134	0.007618
832.7259	0.008674
833.4384	0.009181
834.1510	0.008991
834.8637	0.010004
835.5765	0.010469
836.2893	0.008695
837.0022	0.007428
837.7152	0.006373
838.4283	0.007006
839.1414	0.004663
839.8546	0.008125
840.5679	0.006626
841.2813	0.008590
841.9947	0.006478
842.7082	0.005824
843.4218	0.006499
844.1355	0.005169
844.8492	0.005676
845.5631	0.005951
846.2770	0.005106
846.9909	0.005486
847.7050	0.004430
848.4191	0.003839
849.1333	0.005296
849.8475	0.005507
850.5619	0.003734
851.2763	0.004135
851.9908	0.004177
852.7053	0.008843
853.4200	0.013784
854.1347	0.013087
854.8495	0.013615
855.5643	0.010954
856.2792	0.011081
856.9942	0.012369
857.7093	0.011292
858.4245	0.009709
859.1397	0.009434
859.8550	0.008189
860.5704	0.007745
861.2858	0.007196
862.0013	0.006141
862.7169	0.008231
863.4326	0.007597
864.1483	0.008484
864.8642	0.005402
865.5800	0.004346
866.2960	0.004768
867.0120	0.005000
867.7281	0.004853
868.4443	0.006204
869.1606	0.004346
869.8769	0.005190
870.5933	0.005022
871.3097	0.006014
872.0263	0.003860
872.7429	0.004409
873.4596	0.005190
874.1763	0.004768
874.8932	0.006985
875.6101	0.006436
876.3270	0.006373
877.0441	0.004325
877.7612	0.005845
878.4784	0.007766
879.1957	0.007787
879.9130	0.007661
880.6304	0.008526
881.3479	0.008231
882.0654	0.006711
882.7831	0.006183
883.5007	0.005845
884.2185	0.005444
884.9363	0.006309
885.6542	0.006098
886.3722	0.006880
887.0903	0.004599
887.8084	0.005972
888.5266	0.003649
889.2448	0.005359
889.9632	0.005043
890.6816	0.005655
891.4001	0.005634
892.1186	0.006119
892.8372	0.004895
893.5559	0.003501
894.2747	0.004831
894.9935	0.004578
895.7124	0.004684
896.4314	0.006246
897.1504	0.005085
897.8695	0.005676
898.5887	0.004937
899.3079	0.006204
900.0272	0.004346
900.7466	0.004831
901.4661	0.004388
902.1856	0.006288
902.9052	0.004557
903.6249	0.003332
904.3446	0.004451
905.0644	0.004937
905.7843	0.006436
906.5043	0.005085
907.2243	0.004198
907.9444	0.004261
908.6645	0.004768
909.3847	0.004219
910.1050	0.003269
910.8254	0.004578
911.5458	0.001897
912.2663	0.004283
912.9869	0.004367
913.7075	0.003290
914.4283	0.002910
915.1490	0.003417
915.8699	0.002889
916.5908	0.003776
917.3118	0.003142
918.0328	0.004768
918.7539	0.004641
919.4751	0.004114
920.1964	0.002509
920.9177	0.003818
921.6391	0.002868
922.3606	0.002488
923.0821	0.004620
923.8037	0.003712
924.5254	0.003185
925.2471	0.001538
925.9689	0.002657
926.6908	0.001538
927.4127	0.000883
928.1347	0.003079
928.8568	0.002403
929.5789	0.003121
930.3011	0.002509
931.0234	0.003734
931.7457	0.000250
932.4681	0.001073
933.1906	0.002298
933.9131	0.002783
934.6358	0.001791
935.3584	0.002889
936.0812	0.002023
936.8040	0.002593
937.5269	0.001073
938.2498	0.000714
938.9728	0.001200
939.6959	0.000524
940.4190	0.001833
941.1422	0.001158
941.8655	0.002382
942.5889	0.001918
943.3123	0.002002
944.0357	0.000651
944.7593	0.000503
945.4829	0.000799
946.2066	0.002593
946.9303	0.001158
947.6541	0.001306
948.3780	0.002361
949.1019	0.001580
949.8259	0.000313
950.5500	0.000904
951.2741	0.000461
951.9983	-0.000130
952.7226	-0.000574
953.4469	0.001010
954.1713	0.001876
954.8958	0.001601
955.6203	0.000102
956.3449	0.002235
957.0696	0.002213
957.7943	0.001453
958.5191	0.000651
959.2439	0.001897
959.9688	0.000545
960.6938	0.000187
961.4189	0.000630
962.1440	0.001622
962.8692	-0.000046
963.5944	0.000503
964.3197	-0.000384
965.0451	0.000398
965.7705	0.000925
966.4960	0.001770
967.2216	0.001580
967.9472	0.001876
968.6729	-0.000552
969.3987	-0.000067
970.1245	0.000862
970.8504	0.002446
971.5763	0.001306
972.3023	0.000039
973.0284	0.000334
973.7545	0.000229
974.4807	-0.000130
975.2070	-0.000004
975.9333	-0.000067
976.6597	0.001327
977.3862	0.002657
978.1127	0.000735
978.8393	0.000545
979.5659	0.000947
980.2926	0.000334
981.0194	0.000377
981.7462	-0.000426
982.4731	0.001348
983.2001	-0.000257
983.9271	0.001348
984.6542	0.000144
985.3814	0.001918
986.1086	0.000271
986.8358	-0.001059
987.5632	-0.000130
988.2906	0.000588
989.0180	0.000545
989.7456	0.000841
990.4732	0.000862
991.2008	0.000482
991.9285	0.000841
992.6563	0.001200
993.3841	0.000081
994.1120	0.001897
994.8400	0.000545
995.5680	0.001306
996.2961	0.000778
997.0242	0.000123
997.7524	-0.000426
998.4807	-0.000109
999.2090	-0.000384
999.9374	0.001432
1000.67	0.000355
1001.39	0.001158
1002.12	0.000461
1002.85	0.000377
1003.58	-0.001038
1004.31	0.000757
1005.04	0.000841
1005.77	0.000524
1006.5	0.000355
1007.22	0.000208
1007.95	0.000060
1008.68	-0.000637
1009.41	0.001432
1010.14	-0.000109
1010.87	0.001854
1011.6	0.000377
1012.33	0.002256
1013.06	0.000271
1013.79	0.000735
1014.52	-0.001313
1015.25	0.000609
1015.98	0.000567
1016.71	0.001052
1017.44	0.000799
1018.17	0.001221
1018.9	-0.000046
1019.63	0.001918
1020.36	-0.000552
1021.09	-0.000320
1021.82	-0.000172
1022.55	-0.000742
1023.03	-0.000552