File: Auto_Polymerization/Spectra/spectrum_2025-06-19_11-13-16.txt
# Wavelength (nm)	Intensity (a.u.)
197.7802	0.000922
198.3922	-0.001295
199.0044	0.000838
199.6168	0.000605
200.2292	0.000246
200.8418	0.000711
201.4546	-0.001063
202.0674	0.000753
202.6805	0.001851
203.2936	-0.000176
203.9069	0.000056
204.5203	-0.000873
205.1338	0.000859
205.7475	-0.000429
206.3614	-0.000683
206.9753	0.000880
207.5894	-0.000641
208.2036	-0.000366
208.8180	0.000880
209.4325	-0.000429
210.0471	0.000310
210.6618	-0.001591
211.2767	0.000162
211.8918	-0.000007
212.5069	-0.000218
213.1222	-0.000641
213.7376	0.000373
214.3532	-0.000556
214.9689	0.000162
215.5847	0.000732
216.2007	0.000458
216.8168	-0.000007
217.4330	0.000289
218.0494	-0.000260
218.6659	-0.000683
219.2825	-0.001063
219.8992	0.000289
220.5161	-0.000197
221.1332	0.000183
221.7503	0.000373
222.3676	0.000141
222.9850	0.000099
223.6026	0.000669
224.2203	-0.000007
224.8381	-0.000514
225.4561	0.000225
226.0742	0.000648
226.6924	0.000648
227.3107	0.001239
227.9292	0.000415
228.5478	0.000521
229.1666	0.000985
229.7855	0.000690
230.4045	-0.001000
231.0236	0.000225
231.6429	0.000436
232.2623	0.000901
232.8818	0.000141
233.5015	0.001851
234.1213	-0.001253
234.7413	-0.000324
235.3613	-0.000260
235.9815	0.000352
236.6018	-0.000725
237.2223	0.000246
237.8429	-0.000556
238.4636	0.001556
239.0845	-0.000408
239.7055	0.000162
240.3266	-0.000704
240.9478	-0.000260
241.5692	-0.000788
242.1907	0.002147
242.8124	-0.000070
243.4341	-0.000324
244.0560	-0.000598
244.6781	-0.000725
245.3002	-0.001443
245.9225	-0.000134
246.5449	-0.000282
247.1675	0.001450
247.7902	-0.001253
248.4130	0.000162
249.0359	-0.000176
249.6590	-0.000598
250.2822	0.000162
250.9056	-0.000282
251.5290	0.000584
252.1526	0.000479
252.7763	-0.000282
253.4002	0.000436
254.0242	0.001028
254.6483	0.001556
255.2725	0.000521
255.8969	0.001661
256.5214	0.000141
257.1460	-0.000303
257.7708	-0.000619
258.3957	-0.000260
259.0207	-0.000324
259.6459	-0.000028
260.2711	-0.000683
260.8965	-0.000472
261.5221	-0.000197
262.1477	-0.001105
262.7735	-0.000514
263.3995	-0.000788
264.0255	-0.000303
264.6517	0.000289
265.2780	0.000415
265.9044	0.001302
266.5310	-0.000915
267.1577	0.000985
267.7845	0.000584
268.4114	-0.000873
269.0385	-0.001042
269.6657	0.000120
270.2931	-0.000113
270.9205	0.000415
271.5481	0.000943
272.1758	0.000289
272.8037	0.001176
273.4316	0.000669
274.0597	-0.000070
274.6880	0.000204
275.3163	-0.001147
275.9448	0.000289
276.5734	0.000310
277.2022	-0.000134
277.8310	0.000352
278.4600	0.000943
279.0891	-0.001232
279.7184	0.001154
280.3477	0.000458
280.9772	0.001197
281.6069	0.000246
282.2366	-0.000472
282.8665	-0.001316
283.4965	0.001429
284.1266	-0.000451
284.7569	-0.000767
285.3873	-0.000176
286.0178	0.000077
286.6484	-0.000007
287.2792	-0.000282
287.9101	-0.000683
288.5411	0.000669
289.1723	-0.000049
289.8035	-0.000873
290.4349	0.000838
291.0665	0.001513
291.6981	-0.000324
292.3299	-0.001506
292.9618	0.000711
293.5938	0.000880
294.2260	-0.000303
294.8582	0.000711
295.4906	0.000225
296.1232	0.001028
296.7558	-0.000641
297.3886	-0.000788
298.0215	0.000056
298.6545	0.000373
299.2877	0.001535
299.9210	0.000985
300.5544	-0.000260
301.1879	0.000035
301.8215	-0.001781
302.4553	-0.000662
303.0892	-0.000598
303.7233	-0.000070
304.3574	-0.000619
304.9917	0.000394
305.6261	-0.001274
306.2606	0.000669
306.8953	-0.000070
307.5301	0.000563
308.1650	-0.000092
308.8000	-0.000429
309.4351	-0.000641
310.0704	0.001176
310.7058	-0.000767
311.3413	-0.000451
311.9770	0.001915
312.6127	0.001535
313.2486	0.001767
313.8846	0.000859
314.5208	-0.000619
315.1570	0.001260
315.7934	0.000859
316.4299	0.001703
317.0666	0.000246
317.7033	-0.000429
318.3402	-0.001802
318.9772	-0.000218
319.6143	0.001091
320.2516	0.000352
320.8890	-0.001274
321.5265	-0.000683
322.1641	-0.000641
322.8018	-0.000113
323.4397	0.000246
324.0777	-0.000619
324.7158	0.000500
325.3540	0.001598
325.9924	0.000436
326.6308	0.000648
327.2694	0.000479
327.9082	-0.000725
328.5470	0.000077
329.1860	-0.001021
329.8251	0.000711
330.4643	0.001703
331.1036	0.000183
331.7431	0.000500
332.3826	0.000352
333.0223	0.000056
333.6622	0.000795
334.3021	0.001028
334.9422	0.001007
335.5823	0.000584
336.2227	0.000648
336.8631	0.000056
337.5036	-0.000134
338.1443	-0.000556
338.7851	-0.000049
339.4260	0.000479
340.0670	0.000690
340.7082	-0.000873
341.3495	-0.000704
341.9909	0.000331
342.6324	-0.001105
343.2740	0.000626
343.9158	0.000690
344.5577	-0.000155
345.1997	-0.000007
345.8418	0.001028
346.4840	0.000183
347.1264	-0.000092
347.7689	-0.000978
348.4115	0.001408
349.0542	0.000605
349.6971	-0.001633
350.3400	0.001007
350.9831	-0.000070
351.6263	0.000648
352.2696	-0.000451
352.9131	0.000246
353.5566	0.000394
354.2003	-0.000556
354.8441	0.000120
355.4881	-0.000176
356.1321	0.001049
356.7763	-0.000092
357.4206	-0.001126
358.0650	0.000859
358.7095	0.001070
359.3541	-0.001359
359.9989	0.000014
360.6438	-0.001168
361.2888	-0.000746
361.9339	0.000605
362.5791	-0.000260
363.2245	-0.000429
363.8699	-0.000282
364.5155	-0.001844
365.1612	0.001239
365.8071	0.000162
366.4530	0.000099
367.0991	0.000690
367.7453	0.000817
368.3916	0.000563
369.0380	0.000099
369.6845	0.001408
370.3312	0.001302
370.9780	0.000774
371.6249	0.000141
372.2719	-0.001063
372.9190	0.000648
373.5663	0.000373
374.2136	0.000774
374.8611	-0.000641
375.5087	-0.000282
376.1564	-0.000493
376.8043	0.000246
377.4522	0.001197
378.1003	0.000838
378.7485	-0.000134
379.3968	-0.000260
380.0452	0.000563
380.6938	-0.000429
381.3424	-0.000176
381.9912	0.000964
382.6401	0.000859
383.2891	0.001767
383.9382	0.000331
384.5875	0.000500
385.2368	0.000436
385.8863	0.001556
386.5359	-0.000641
387.1856	0.000753
387.8355	0.000394
388.4854	0.001978
389.1355	0.000922
389.7856	0.002084
390.4359	0.002400
391.0863	0.003435
391.7369	0.001978
392.3875	0.003604
393.0383	0.005188
393.6891	0.006011
394.3401	0.004765
394.9912	0.007067
395.6425	0.005864
396.2938	0.006962
396.9453	0.008208
397.5968	0.009665
398.2485	0.010235
398.9003	0.011164
399.5522	0.011164
400.2043	0.011755
400.8564	0.012220
401.5087	0.013445
402.1610	0.013740
402.8135	0.012663
403.4661	0.014374
404.1189	0.015641
404.7717	0.016380
405.4246	0.019716
406.0777	0.016507
406.7309	0.017182
407.3842	0.015282
408.0376	0.018872
408.6911	0.019822
409.3448	0.018724
409.9985	0.018154
410.6524	0.018323
411.3064	0.021469
411.9605	0.019632
412.6147	0.021701
413.2690	0.022757
413.9234	0.020582
414.5780	0.021807
415.2326	0.022208
415.8874	0.022821
416.5423	0.021701
417.1973	0.021469
417.8524	0.023750
418.5077	0.022757
419.1630	0.024658
419.8185	0.024447
420.4741	0.025629
421.1298	0.026917
421.7856	0.028016
422.4415	0.027804
423.0975	0.028966
423.7536	0.026601
424.4099	0.028311
425.0663	0.026896
425.7228	0.025291
426.3793	0.025798
427.0361	0.025207
427.6929	0.028016
428.3498	0.026031
429.0068	0.027150
429.6640	0.030613
430.3213	0.031880
430.9787	0.030571
431.6362	0.027086
432.2938	0.026601
432.9515	0.024785
433.6093	0.030148
434.2673	0.028016
434.9253	0.027868
435.5835	0.026685
436.2418	0.027319
436.9001	0.027551
437.5586	0.027614
438.2173	0.027276
438.8760	0.027783
439.5348	0.027551
440.1938	0.027044
440.8528	0.027340
441.5120	0.032894
442.1713	0.029620
442.8307	0.030275
443.4902	0.029409
444.1498	0.031289
444.8095	0.030043
445.4694	0.029874
446.1293	0.028227
446.7894	0.027403
447.4496	0.028586
448.1098	0.028480
448.7702	0.025249
449.4307	0.025862
450.0914	0.024890
450.7521	0.025418
451.4129	0.023877
452.0739	0.024151
452.7349	0.020962
453.3961	0.021786
454.0574	0.020878
454.7188	0.021448
455.3803	0.020582
456.0419	0.019759
456.7036	0.020561
457.3654	0.020519
458.0274	0.019885
458.6894	0.019231
459.3516	0.019590
460.0138	0.021216
460.6762	0.018196
461.3387	0.019083
462.0013	0.018280
462.6640	0.016211
463.3268	0.015620
463.9897	0.014965
464.6528	0.018259
465.3159	0.017225
465.9792	0.018682
466.6425	0.014712
467.3060	0.013698
467.9696	0.013445
468.6333	0.014416
469.2970	0.012896
469.9610	0.009791
470.6250	0.009665
471.2891	0.009559
471.9533	0.009411
472.6177	0.010150
473.2821	0.011375
473.9467	0.009749
474.6113	0.008545
475.2761	0.010425
475.9410	0.009686
476.6060	0.009369
477.2711	0.008123
477.9363	0.008841
478.6016	0.006434
479.2670	0.007447
479.9325	0.005357
480.5982	0.009453
481.2639	0.008398
481.9298	0.010066
482.5957	0.007532
483.2618	0.008440
483.9280	0.006941
484.5943	0.007447
485.2606	0.005927
485.9271	0.019801
486.5937	0.016169
487.2605	0.011312
487.9273	0.005969
488.5942	0.006729
489.2612	0.006117
489.9284	0.005483
490.5956	0.003794
491.2630	0.003688
491.9304	0.005019
492.5980	0.004871
493.2657	0.002928
493.9334	0.005124
494.6013	0.003203
495.2693	0.002527
495.9374	0.002189
496.6056	0.003688
497.2739	0.004259
497.9423	0.004047
498.6109	0.003667
499.2795	0.002569
499.9482	0.004322
500.6171	0.002253
501.2860	0.004470
501.9551	0.004491
502.6242	0.003013
503.2935	0.004575
503.9628	0.003541
504.6323	0.003731
505.3019	0.002886
505.9716	0.002886
506.6414	0.002675
507.3113	0.004026
507.9813	0.002696
508.6514	0.003794
509.3216	0.002696
509.9919	0.001471
510.6623	0.003456
511.3329	0.002020
512.0035	0.002253
512.6742	0.002231
513.3451	0.002907
514.0160	0.003921
514.6871	0.001936
515.3582	0.003710
516.0295	0.002443
516.7008	0.003308
517.3723	0.003372
518.0439	0.002654
518.7155	0.001978
519.3873	0.003752
520.0592	0.002506
520.7312	0.002780
521.4033	0.003520
522.0755	0.003287
522.7478	0.002886
523.4202	0.002527
524.0927	0.004195
524.7653	0.001999
525.4380	0.003139
526.1108	0.003773
526.7837	0.004069
527.4568	0.003710
528.1299	0.003161
528.8031	0.006434
529.4765	0.005906
530.1499	0.003139
530.8234	0.005483
531.4971	0.003731
532.1708	0.006391
532.8447	0.005441
533.5186	0.007321
534.1927	0.008419
534.8668	0.007067
535.5411	0.007975
536.2155	0.007152
536.8899	0.006898
537.5645	0.008271
538.2392	0.008883
538.9139	0.010467
539.5888	0.010911
540.2638	0.010889
540.9389	0.011185
541.6140	0.012389
542.2893	0.013487
542.9647	0.012790
543.6402	0.014205
544.3158	0.012706
544.9915	0.014416
545.6673	0.016718
546.3432	0.013043
547.0192	0.017309
547.6953	0.016507
548.3715	0.021913
549.0478	0.018407
549.7242	0.018344
550.4007	0.019864
551.0773	0.016591
551.7540	0.019526
552.4308	0.023475
553.1077	0.023729
553.7847	0.023349
554.4618	0.023708
555.1390	0.023180
555.8163	0.026263
556.4937	0.026875
557.1712	0.024341
557.8488	0.023412
558.5266	0.025904
559.2044	0.025714
559.8823	0.026432
560.5603	0.029346
561.2384	0.034836
561.9166	0.034456
562.5949	0.033612
563.2733	0.035660
563.9519	0.036568
564.6305	0.038785
565.3092	0.040538
565.9880	0.039630
566.6669	0.040897
567.3459	0.051181
568.0250	0.057854
568.7043	0.064485
569.3836	0.077493
570.0630	0.101313
570.7425	0.106297
571.4221	0.124733
572.1018	0.139557
572.7816	0.119474
573.4615	0.142196
574.1415	0.158309
574.8216	0.170726
575.5018	0.175773
576.1821	0.159893
576.8626	0.184473
577.5431	0.194145
578.2237	0.243348
578.9044	0.202465
579.5851	0.202528
580.2660	0.212855
580.9470	0.209856
581.6281	0.321207
582.3093	0.305855
582.9906	0.242968
583.6720	0.198580
584.3535	0.199762
585.0351	0.230023
585.7167	0.238048
586.3985	0.206731
587.0804	0.215853
587.7624	0.230023
588.4445	0.204387
589.1266	0.179046
589.8089	0.166122
590.4913	0.150094
591.1737	0.133538
591.8563	0.131575
592.5389	0.157232
593.2217	0.203099
593.9046	0.195898
594.5875	0.172859
595.2705	0.195116
595.9537	0.173070
596.6369	0.146610
597.3203	0.150939
598.0037	0.147053
598.6872	0.155585
599.3709	0.181031
600.0546	0.182552
600.7384	0.181960
601.4223	0.185804
602.1064	0.166143
602.7905	0.172774
603.4747	0.189098
604.1590	0.180567
604.8434	0.158668
605.5279	0.169036
606.2125	0.174949
606.8972	0.159703
607.5819	0.159491
608.2668	0.151256
608.9518	0.144477
609.6369	0.133707
610.3220	0.153452
611.0073	0.141035
611.6927	0.139388
612.3781	0.131912
613.0637	0.134130
613.7493	0.129273
614.4351	0.126718
615.1209	0.125619
615.8068	0.130962
616.4929	0.115082
617.1790	0.109296
617.8652	0.109169
618.5515	0.102982
619.2379	0.093395
619.9244	0.096224
620.6110	0.095189
621.2977	0.077282
621.9845	0.083047
622.6714	0.084779
623.3584	0.090037
624.0454	0.088305
624.7326	0.093944
625.4199	0.080260
626.1072	0.077894
626.7947	0.072151
627.4822	0.073840
628.1698	0.065710
628.8576	0.059438
629.5454	0.062394
630.2333	0.061719
630.9213	0.057115
631.6094	0.054285
632.2976	0.052617
632.9859	0.045078
633.6743	0.045501
634.3628	0.044740
635.0514	0.041678
635.7400	0.042713
636.4288	0.044128
637.1177	0.043663
637.8066	0.044234
638.4957	0.044001
639.1848	0.041045
639.8740	0.039831
640.5633	0.037436
641.2528	0.034934
641.9423	0.031360
642.6319	0.029965
643.3216	0.029780
644.0113	0.031494
644.7012	0.026541
645.3912	0.027662
646.0812	0.026836
646.7714	0.026826
647.4616	0.025171
648.1520	0.029801
648.8424	0.035378
649.5329	0.033904
650.2236	0.030641
650.9143	0.029411
651.6051	0.028049
652.2960	0.031229
652.9870	0.030756
653.6780	0.030645
654.3692	0.035373
655.0605	0.067389
655.7518	0.958820
656.4433	1.000000
657.1348	0.873831
657.8264	0.533750
658.5181	0.415293
659.2099	0.337035
659.9018	0.100239
660.5938	0.031819
661.2859	0.025347
661.9781	0.022930
662.6704	0.022465
663.3627	0.022949
664.0552	0.021134
664.7477	0.022274
665.4403	0.024068
666.1330	0.023605
666.8259	0.021793
667.5188	0.020837
668.2117	0.019914
668.9048	0.019716
669.5980	0.021659
670.2913	0.019421
670.9846	0.023771
671.6781	0.028945
672.3716	0.034266
673.0652	0.034034
673.7589	0.029029
674.4527	0.027445
675.1466	0.026495
675.8406	0.025967
676.5347	0.026031
677.2288	0.022884
677.9231	0.029768
678.6174	0.030592
679.3119	0.033337
680.0064	0.035301
680.7010	0.033147
681.3957	0.035132
682.0905	0.035407
682.7854	0.031584
683.4803	0.032323
684.1754	0.033675
684.8705	0.040369
685.5658	0.046430
686.2611	0.044297
686.9565	0.045543
687.6520	0.045374
688.3476	0.041615
689.0433	0.037455
689.7390	0.036948
690.4349	0.034604
691.1308	0.038912
691.8269	0.036864
692.5230	0.039356
693.2192	0.038722
693.9155	0.036484
694.6119	0.034372
695.3083	0.034499
696.0049	0.029093
696.7016	0.036821
697.3983	0.039018
698.0951	0.037772
698.7920	0.038067
699.4890	0.036315
700.1861	0.030444
700.8833	0.032387
701.5806	0.026601
702.2779	0.031310
702.9753	0.029473
703.6729	0.028037
704.3705	0.028818
705.0682	0.023433
705.7660	0.024383
706.4638	0.032556
707.1618	0.036821
707.8599	0.036568
708.5580	0.036125
709.2562	0.031880
709.9545	0.033612
710.6529	0.037307
711.3514	0.032535
712.0500	0.029979
712.7486	0.030381
713.4474	0.030845
714.1462	0.035787
714.8451	0.034984
715.5441	0.033189
716.2432	0.032155
716.9424	0.030571
717.6416	0.029050
718.3410	0.030465
719.0404	0.029219
719.7399	0.030845
720.4395	0.027171
721.1392	0.031141
721.8390	0.029979
722.5388	0.030148
723.2388	0.027276
723.9388	0.028966
724.6389	0.028712
725.3391	0.032809
726.0394	0.033527
726.7398	0.031373
727.4403	0.030824
728.1408	0.033168
728.8414	0.035449
729.5421	0.036209
730.2429	0.035956
730.9438	0.043114
731.6448	0.042650
732.3458	0.042185
733.0470	0.045163
733.7482	0.045627
734.4495	0.054307
735.1509	0.050041
735.8524	0.048795
736.5539	0.049344
737.2556	0.048584
737.9573	0.041636
738.6591	0.042396
739.3610	0.047929
740.0630	0.043811
740.7651	0.039440
741.4672	0.035005
742.1695	0.032725
742.8718	0.035090
743.5742	0.031732
744.2767	0.030444
744.9792	0.031542
745.6819	0.027403
746.3846	0.028712
747.0874	0.029874
747.7903	0.032281
748.4933	0.030170
749.1964	0.031753
749.8995	0.035660
750.6028	0.042439
751.3061	0.040327
752.0095	0.040707
752.7130	0.035829
753.4166	0.036167
754.1202	0.042650
754.8239	0.041615
755.5278	0.044339
756.2317	0.047802
756.9356	0.051899
757.6397	0.060431
758.3438	0.055531
759.0481	0.056841
759.7524	0.063577
760.4568	0.061254
761.1613	0.062943
761.8658	0.054011
762.5705	0.047169
763.2752	0.050379
763.9800	0.050801
764.6849	0.057474
765.3898	0.059016
766.0949	0.048415
766.8000	0.039672
767.5052	0.036990
768.2105	0.043621
768.9159	0.047127
769.6214	0.045860
770.3269	0.044403
771.0325	0.047528
771.7382	0.045648
772.4440	0.041214
773.1499	0.041150
773.8558	0.037180
774.5618	0.033823
775.2679	0.030972
775.9741	0.025291
776.6804	0.026875
777.3868	0.024996
778.0932	0.025439
778.7997	0.027466
779.5063	0.031225
780.2130	0.031500
780.9197	0.029874
781.6265	0.035850
782.3335	0.035005
783.0405	0.033865
783.7475	0.035153
784.4547	0.028818
785.1619	0.029388
785.8692	0.030338
786.5766	0.029219
787.2841	0.028755
787.9917	0.029283
788.6993	0.031605
789.4070	0.029557
790.1148	0.025228
790.8227	0.027530
791.5306	0.023539
792.2387	0.024278
792.9468	0.021596
793.6550	0.023032
794.3632	0.030782
795.0716	0.033590
795.7800	0.028860
796.4885	0.022419
797.1971	0.022124
797.9058	0.022419
798.6145	0.023433
799.3233	0.023982
800.0322	0.021174
800.7412	0.019674
801.4503	0.019759
802.1594	0.017267
802.8686	0.016845
803.5779	0.017457
804.2873	0.016950
804.9968	0.017246
805.7063	0.019210
806.4159	0.023201
807.1256	0.023518
807.8354	0.023306
808.5452	0.023053
809.2551	0.022842
809.9651	0.018745
810.6752	0.018703
811.3853	0.018112
812.0956	0.017394
812.8059	0.015430
813.5163	0.014754
814.2267	0.018977
814.9373	0.016887
815.6479	0.014923
816.3586	0.013719
817.0694	0.014036
817.7802	0.014078
818.4912	0.012706
819.2022	0.013022
819.9133	0.011080
820.6244	0.015535
821.3357	0.015028
822.0470	0.014395
822.7584	0.013402
823.4698	0.012262
824.1814	0.012072
824.8930	0.010932
825.6047	0.013191
826.3165	0.012093
827.0283	0.014479
827.7402	0.013191
828.4522	0.013466
829.1643	0.013424
829.8765	0.010805
830.5887	0.010594
831.3010	0.009834
832.0134	0.007743
832.7259	0.008271
833.4384	0.009686
834.1510	0.009432
834.8637	0.009179
835.5765	0.008735
836.2893	0.009010
837.0022	0.008229
837.7152	0.007637
838.4283	0.005885
839.1414	0.006835
839.8546	0.009580
840.5679	0.006539
841.2813	0.006455
841.9947	0.005378
842.7082	0.006265
843.4218	0.004575
844.1355	0.005272
844.8492	0.004428
845.5631	0.004533
846.2770	0.006075
846.9909	0.005082
847.7050	0.004111
848.4191	0.006497
849.1333	0.004913
849.8475	0.003055
850.5619	0.005315
851.2763	0.004808
851.9908	0.005188
852.7053	0.008313
853.4200	0.013170
854.1347	0.011945
854.8495	0.014226
855.5643	0.013656
856.2792	0.011755
856.9942	0.011924
857.7093	0.009601
858.4245	0.009939
859.1397	0.007511
859.8550	0.009496
860.5704	0.007849
861.2858	0.005631
862.0013	0.006096
862.7169	0.005146
863.4326	0.006603
864.1483	0.007236
864.8642	0.006180
865.5800	0.006349
866.2960	0.004575
867.0120	0.004765
867.7281	0.006265
868.4443	0.004744
869.1606	0.004597
869.8769	0.004913
870.5933	0.004765
871.3097	0.006835
872.0263	0.004871
872.7429	0.005716
873.4596	0.004132
874.1763	0.006919
874.8932	0.004470
875.6101	0.005315
876.3270	0.004575
877.0441	0.003836
877.7612	0.006497
878.4784	0.007004
879.1957	0.007996
879.9130	0.006856
880.6304	0.008271
881.3479	0.007975
882.0654	0.005990
882.7831	0.006391
883.5007	0.005716
884.2185	0.005505
884.9363	0.006117
885.6542	0.007384
886.3722	0.005864
887.0903	0.006476
887.8084	0.005779
888.5266	0.003731
889.2448	0.005336
889.9632	0.005124
890.6816	0.003836
891.4001	0.006075
892.1186	0.004744
892.8372	0.005695
893.5559	0.006413
894.2747	0.003351
894.9935	0.004069
895.7124	0.003456
896.4314	0.004744
897.1504	0.004153
897.8695	0.005251
898.5887	0.005357
899.3079	0.005230
900.0272	0.003351
900.7466	0.004723
901.4661	0.004892
902.1856	0.004428
902.9052	0.002464
903.6249	0.002802
904.3446	0.003498
905.0644	0.005800
905.7843	0.005568
906.5043	0.006476
907.2243	0.002443
907.9444	0.003414
908.6645	0.003752
909.3847	0.003414
910.1050	0.001978
910.8254	0.004829
911.5458	0.003414
912.2663	0.003963
912.9869	0.003667
913.7075	0.003646
914.4283	0.003646
915.1490	0.003646
915.8699	0.002992
916.5908	0.004512
917.3118	0.003013
918.0328	0.004406
918.7539	0.004005
919.4751	0.003752
920.1964	0.002485
920.9177	0.005505
921.6391	0.002928
922.3606	0.001894
923.0821	0.003541
923.8037	0.003520
924.5254	0.001176
925.2471	0.003393
925.9689	0.002210
926.6908	0.002379
927.4127	0.002274
928.1347	0.003414
928.8568	0.002337
929.5789	0.003287
930.3011	0.001640
931.0234	0.002907
931.7457	0.001957
932.4681	0.002062
933.1906	0.002041
933.9131	0.002253
934.6358	0.001408
935.3584	0.001746
936.0812	0.001957
936.8040	0.000795
937.5269	-0.000429
938.2498	0.000584
938.9728	0.000035
939.6959	0.000479
940.4190	0.001049
941.1422	0.001894
941.8655	0.001809
942.5889	0.000711
943.3123	0.000014
944.0357	0.000162
944.7593	0.000690
945.4829	0.001049
946.2066	0.000711
946.9303	0.000120
947.6541	0.000352
948.3780	0.002062
949.1019	0.000415
949.8259	0.001788
950.5500	0.001513
951.2741	-0.000092
951.9983	0.000204
952.7226	0.000985
953.4469	0.000394
954.1713	0.001429
954.8958	0.001281
955.6203	0.000267
956.3449	0.000563
957.0696	0.000225
957.7943	-0.000239
958.5191	-0.000218
959.2439	-0.000683
959.9688	0.002105
960.6938	0.000225
961.4189	0.001323
962.1440	0.001619
962.8692	0.001260
963.5944	-0.000092
964.3197	-0.000197
965.0451	0.001577
965.7705	-0.000092
966.4960	0.000943
967.2216	0.001112
967.9472	0.000584
968.6729	0.000099
969.3987	0.002337
970.1245	-0.000725
970.8504	0.001471
971.5763	0.000774
972.3023	0.000817
973.0284	-0.000683
973.7545	0.000648
974.4807	-0.000366
975.2070	0.001344
975.9333	0.001999
976.6597	-0.000641
977.3862	-0.000387
978.1127	-0.000556
978.8393	0.000225
979.5659	0.000331
980.2926	-0.000894
981.0194	0.001281
981.7462	0.000204
982.4731	0.001197
983.2001	-0.000070
983.9271	0.000204
984.6542	-0.000176
985.3814	0.001154
986.1086	0.000035
986.8358	-0.001190
987.5632	0.001133
988.2906	0.000373
989.0180	0.000183
989.7456	0.001682
990.4732	-0.000303
991.2008	-0.000957
991.9285	0.000458
992.6563	0.000500
993.3841	0.000669
994.1120	0.000352
994.8400	-0.000218
995.5680	-0.000239
996.2961	-0.000514
997.0242	0.000859
997.7524	0.001387
998.4807	-0.000556
999.2090	-0.000176
999.9374	0.001070
1000.67	-0.000915
1001.39	0.000246
1002.12	0.000394
1002.85	-0.000324
1003.58	0.000458
1004.31	0.000352
1005.04	-0.001190
1005.77	0.000479
1006.5	-0.000598
1007.22	-0.000619
1007.95	-0.000894
1008.68	-0.000218
1009.41	-0.000831
1010.14	-0.000028
1010.87	-0.000113
1011.6	0.000225
1012.33	0.000500
1013.06	-0.000303
1013.79	-0.001063
1014.52	-0.001696
1015.25	0.000267
1015.98	0.001007
1016.71	0.000774
1017.44	-0.000831
1018.17	-0.000493
1018.9	-0.001485
1019.63	-0.000809
1020.36	0.000626
1021.09	-0.000134
1021.82	-0.000387
1022.55	-0.000176
1023.03	-0.000831