File: Auto_Polymerization/Spectra/spectrum_2025-06-19_10-26-51.txt
# Wavelength (nm)	Intensity (a.u.)
197.7802	0.001335
198.3922	-0.000058
199.0044	-0.000818
199.6168	-0.000121
200.2292	0.000322
200.8418	-0.001177
201.4546	-0.000290
202.0674	-0.000459
202.6805	0.000216
203.2936	-0.000206
203.9069	0.000934
204.5203	0.000280
205.1338	0.001631
205.7475	-0.002887
206.3614	0.001504
206.9753	-0.000396
207.5894	-0.000755
208.2036	-0.000227
208.8180	0.000174
209.4325	-0.000143
210.0471	0.000829
210.6618	-0.001515
211.2767	-0.000396
211.8918	0.000238
212.5069	0.000301
213.1222	-0.000713
213.7376	-0.000966
214.3532	-0.000354
214.9689	-0.000586
215.5847	0.000259
216.2007	-0.000058
216.8168	0.000174
217.4330	-0.000206
218.0494	-0.000438
218.6659	-0.000459
219.2825	0.000301
219.8992	0.000195
220.5161	-0.000100
221.1332	-0.000860
221.7503	0.000808
222.3676	0.000174
222.9850	-0.000164
223.6026	0.000934
224.2203	-0.000164
224.8381	-0.000438
225.4561	-0.000058
226.0742	-0.000903
226.6924	-0.000523
227.3107	0.000449
227.9292	-0.000016
228.5478	-0.000480
229.1666	0.000808
229.7855	0.001525
230.4045	0.001736
231.0236	0.000765
231.6429	-0.000354
232.2623	0.001061
232.8818	0.000618
233.5015	0.000174
234.1213	-0.001093
234.7413	0.000216
235.3613	-0.002866
235.9815	0.000153
236.6018	-0.001219
237.2223	-0.000628
237.8429	-0.000797
238.4636	-0.000079
239.0845	0.000913
239.7055	0.000808
240.3266	0.001019
240.9478	-0.000121
241.5692	0.000259
242.1907	0.000681
242.8124	-0.000607
243.4341	0.001293
244.0560	-0.000079
244.6781	0.000111
245.3002	-0.000544
245.9225	-0.000417
246.5449	-0.000924
247.1675	-0.000818
247.7902	0.000195
248.4130	0.000681
249.0359	-0.000713
249.6590	0.000428
250.2822	0.000449
250.9056	0.000618
251.5290	0.000681
252.1526	0.000259
252.7763	0.001568
253.4002	0.002602
254.0242	0.000153
254.6483	-0.000100
255.2725	0.000048
255.8969	0.002222
256.5214	-0.000480
257.1460	0.000428
257.7708	0.000090
258.3957	-0.000607
259.0207	-0.000924
259.6459	0.000195
260.2711	-0.000375
260.8965	0.001209
261.5221	0.000596
262.1477	0.001314
262.7735	-0.000501
263.3995	-0.000818
264.0255	0.000744
264.6517	0.000132
265.2780	-0.000143
265.9044	0.001504
266.5310	-0.000544
267.1577	0.001251
267.7845	0.000132
268.4114	0.001061
269.0385	-0.000164
269.6657	0.001441
270.2931	-0.001473
270.9205	0.001103
271.5481	-0.000290
272.1758	0.000618
272.8037	0.000406
273.4316	-0.000607
274.0597	-0.000860
274.6880	-0.000501
275.3163	-0.000248
275.9448	0.001145
276.5734	0.001652
277.2022	-0.000480
277.8310	-0.000164
278.4600	0.000934
279.0891	-0.001494
279.7184	0.001040
280.3477	-0.002233
280.9772	-0.000143
281.6069	-0.001050
282.2366	0.001504
282.8665	-0.000248
283.4965	-0.000290
284.1266	-0.000121
284.7569	0.000955
285.3873	0.000744
286.0178	0.000575
286.6484	-0.000438
287.2792	0.000090
287.9101	0.000174
288.5411	0.000132
289.1723	0.000132
289.8035	0.000470
290.4349	0.000575
291.0665	0.001779
291.6981	0.000069
292.3299	0.001652
292.9618	-0.001093
293.5938	0.001736
294.2260	0.000554
294.8582	0.000005
295.4906	0.000575
296.1232	-0.000649
296.7558	0.000048
297.3886	0.000174
298.0215	-0.000544
298.6545	0.000111
299.2877	0.000385
299.9210	-0.000185
300.5544	0.000470
301.1879	-0.000248
301.8215	0.000702
302.4553	-0.000903
303.0892	-0.000586
303.7233	-0.000079
304.3574	-0.001008
304.9917	0.001103
305.6261	0.001441
306.2606	-0.000121
306.8953	0.000216
307.5301	0.002391
308.1650	0.000512
308.8000	0.001293
309.4351	-0.000227
310.0704	-0.000544
310.7058	-0.000164
311.3413	0.001188
311.9770	-0.000311
312.6127	-0.000480
313.2486	0.000660
313.8846	0.001694
314.5208	0.000069
315.1570	0.001272
315.7934	-0.000459
316.4299	0.001103
317.0666	-0.000100
317.7033	0.000132
318.3402	0.000596
318.9772	0.000026
319.6143	0.000069
320.2516	-0.001071
320.8890	-0.001388
321.5265	0.000639
322.1641	-0.001430
322.8018	0.000280
323.4397	-0.000987
324.0777	-0.000417
324.7158	-0.000037
325.3540	0.000955
325.9924	0.002539
326.6308	-0.000713
327.2694	0.000385
327.9082	0.001652
328.5470	0.001483
329.1860	0.001568
329.8251	-0.001093
330.4643	0.000639
331.1036	0.000216
331.7431	0.000153
332.3826	0.000153
333.0223	0.000850
333.6622	0.000364
334.3021	0.000639
334.9422	0.000491
335.5823	0.000913
336.2227	-0.000016
336.8631	0.000280
337.5036	0.000026
338.1443	0.001504
338.7851	-0.000417
339.4260	-0.000185
340.0670	-0.000755
340.7082	0.000871
341.3495	-0.000375
341.9909	0.000343
342.6324	-0.000185
343.2740	-0.000501
343.9158	-0.000459
344.5577	0.000385
345.1997	0.001990
345.8418	-0.000375
346.4840	0.000829
347.1264	0.000702
347.7689	-0.000375
348.4115	0.000449
349.0542	0.001019
349.6971	0.000618
350.3400	-0.000966
350.9831	-0.000037
351.6263	0.001399
352.2696	-0.000185
352.9131	-0.000248
353.5566	-0.000227
354.2003	0.000871
354.8441	0.001293
355.4881	-0.001135
356.1321	0.000238
356.7763	-0.002148
357.4206	-0.000100
358.0650	0.000829
358.7095	0.000132
359.3541	-0.000121
359.9989	-0.000375
360.6438	0.000744
361.2888	0.001525
361.9339	-0.000755
362.5791	-0.000544
363.2245	0.001293
363.8699	0.000343
364.5155	0.001420
365.1612	-0.000227
365.8071	0.001335
366.4530	0.000153
367.0991	0.001166
367.7453	0.000005
368.3916	0.000132
369.0380	0.000111
369.6845	-0.000734
370.3312	0.001166
370.9780	0.000681
371.6249	0.000470
372.2719	0.000322
372.9190	0.001483
373.5663	0.000765
374.2136	0.001019
374.8611	0.000385
375.5087	0.000808
376.1564	-0.001177
376.8043	0.000406
377.4522	0.000829
378.1003	0.000660
378.7485	0.000364
379.3968	0.000702
380.0452	-0.000628
380.6938	0.000364
381.3424	0.000786
381.9912	0.000301
382.6401	-0.001388
383.2891	0.000470
383.9382	-0.000501
384.5875	0.000470
385.2368	0.000090
385.8863	-0.000058
386.5359	-0.000628
387.1856	0.001821
387.8355	0.001061
388.4854	0.001842
389.1355	0.001568
389.7856	0.002855
390.4359	0.003341
391.0863	0.004798
391.7369	0.005769
392.3875	0.006465
393.0383	0.006909
393.6891	0.007732
394.3401	0.008323
394.9912	0.010793
395.6425	0.009738
396.2938	0.010540
396.9453	0.015269
397.5968	0.014636
398.2485	0.015037
398.9003	0.016916
399.5522	0.017486
400.2043	0.017253
400.8564	0.018752
401.5087	0.020040
402.1610	0.020230
402.8135	0.020631
403.4661	0.020019
404.1189	0.021201
404.7717	0.024621
405.4246	0.026437
406.0777	0.026564
406.7309	0.024959
407.3842	0.022848
408.0376	0.024854
408.6911	0.025487
409.3448	0.025951
409.9985	0.027535
410.6524	0.025888
411.3064	0.028084
411.9605	0.027852
412.6147	0.028527
413.2690	0.027683
413.9234	0.030195
414.5780	0.029730
415.2326	0.028189
415.8874	0.028802
416.5423	0.030427
417.1973	0.029519
417.8524	0.028358
418.5077	0.029899
419.1630	0.030469
419.8185	0.031631
420.4741	0.032137
421.1298	0.034354
421.7856	0.036254
422.4415	0.035325
423.0975	0.033298
423.7536	0.034713
424.4099	0.031567
425.0663	0.033383
425.7228	0.030870
426.3793	0.030976
427.0361	0.029815
427.6929	0.033446
428.3498	0.030554
429.0068	0.031799
429.6640	0.032348
430.3213	0.037415
430.9787	0.034417
431.6362	0.030533
432.2938	0.028422
432.9515	0.028020
433.6093	0.034882
434.2673	0.033214
434.9253	0.031018
435.5835	0.031187
436.2418	0.031039
436.9001	0.030680
437.5586	0.030322
438.2173	0.030406
438.8760	0.029857
439.5348	0.030364
440.1938	0.029836
440.8528	0.031039
441.5120	0.035578
442.1713	0.035536
442.8307	0.031166
443.4902	0.032475
444.1498	0.033594
444.8095	0.033509
445.4694	0.029625
446.1293	0.030617
446.7894	0.030237
447.4496	0.029540
448.1098	0.028802
448.7702	0.027514
449.4307	0.028422
450.0914	0.027577
450.7521	0.026733
451.4129	0.023714
452.0739	0.025297
452.7349	0.024263
453.3961	0.022172
454.0574	0.020906
454.7188	0.022341
455.3803	0.024199
456.0419	0.022362
456.7036	0.019386
457.3654	0.022088
458.0274	0.022679
458.6894	0.021940
459.3516	0.022447
460.0138	0.020420
460.6762	0.019724
461.3387	0.018710
462.0013	0.018985
462.6640	0.015839
463.3268	0.017085
463.9897	0.016768
464.6528	0.018140
465.3159	0.019322
465.9792	0.018795
466.6425	0.016388
467.3060	0.013855
467.9696	0.013812
468.6333	0.013073
469.2970	0.011976
469.9610	0.011680
470.6250	0.010413
471.2891	0.009738
471.9533	0.010540
472.6177	0.010139
473.2821	0.008809
473.9467	0.010793
474.6113	0.009020
475.2761	0.010434
475.9410	0.008408
476.6060	0.008767
477.2711	0.009548
477.9363	0.008070
478.6016	0.008598
479.2670	0.008957
479.9325	0.007563
480.5982	0.006909
481.2639	0.007627
481.9298	0.007584
482.5957	0.006571
483.2618	0.006592
483.9280	0.006487
484.5943	0.007859
485.2606	0.007162
485.9271	0.020315
486.5937	0.014783
487.2605	0.010646
487.9273	0.006677
488.5942	0.005515
489.2612	0.004777
489.9284	0.005832
490.5956	0.003425
491.2630	0.005241
491.9304	0.005727
492.5980	0.006001
493.2657	0.003214
493.9334	0.004650
494.6013	0.003531
495.2693	0.003615
495.9374	0.004608
496.6056	0.004291
497.2739	0.003510
497.9423	0.003974
498.6109	0.003911
499.2795	0.003784
499.9482	0.003425
500.6171	0.003193
501.2860	0.002201
501.9551	0.003510
502.6242	0.003700
503.2935	0.004629
503.9628	0.002961
504.6323	0.004481
505.3019	0.003235
505.9716	0.003425
506.6414	0.002243
507.3113	0.003425
507.9813	0.004038
508.6514	0.003784
509.3216	0.002750
509.9919	0.003805
510.6623	0.002243
511.3329	0.003974
512.0035	0.002686
512.6742	0.003531
513.3451	0.003700
514.0160	0.003130
514.6871	0.001842
515.3582	0.001884
516.0295	0.004418
516.7008	0.003636
517.3723	0.002201
518.0439	0.004185
518.7155	0.003130
519.3873	0.004544
520.0592	0.003911
520.7312	0.003299
521.4033	0.002412
522.0755	0.002581
522.7478	0.003278
523.4202	0.004354
524.0927	0.005157
524.7653	0.003341
525.4380	0.004312
526.1108	0.003088
526.7837	0.003826
527.4568	0.004755
528.1299	0.004777
528.8031	0.003784
529.4765	0.005621
530.1499	0.004185
530.8234	0.004101
531.4971	0.004713
532.1708	0.006381
532.8447	0.006212
533.5186	0.007795
534.1927	0.006803
534.8668	0.009189
535.5411	0.006740
536.2155	0.008028
536.8899	0.006275
537.5645	0.008640
538.2392	0.009506
538.9139	0.009316
539.5888	0.011258
540.2638	0.010582
540.9389	0.011047
541.6140	0.013073
542.2893	0.012714
542.9647	0.014087
543.6402	0.013643
544.3158	0.013538
544.9915	0.014931
545.6673	0.015902
546.3432	0.015100
547.0192	0.014973
547.6953	0.017380
548.3715	0.019470
549.0478	0.018774
549.7242	0.019006
550.4007	0.017380
551.0773	0.019491
551.7540	0.018204
552.4308	0.023629
553.1077	0.022869
553.7847	0.022194
554.4618	0.022911
555.1390	0.025191
555.8163	0.025761
556.4937	0.026754
557.1712	0.023249
557.8488	0.027619
558.5266	0.028337
559.2044	0.023566
559.8823	0.026521
560.5603	0.032264
561.2384	0.035198
561.9166	0.036254
562.5949	0.033868
563.2733	0.034586
563.9519	0.036486
564.6305	0.039336
565.3092	0.040497
565.9880	0.041722
566.6669	0.042820
567.3459	0.051264
568.0250	0.057724
568.7043	0.064185
569.3836	0.077485
570.0630	0.104466
570.7425	0.108287
571.4221	0.126168
572.1018	0.140440
572.7816	0.122157
573.4615	0.145739
574.1415	0.160897
574.8216	0.174788
575.5018	0.179201
576.1821	0.160475
576.8626	0.184901
577.5431	0.204493
578.2237	0.245892
578.9044	0.205611
579.5851	0.205823
580.2660	0.212853
580.9470	0.207786
581.6281	0.321282
582.3093	0.313956
582.9906	0.244605
583.6720	0.200882
584.3535	0.198708
585.0351	0.231093
585.7167	0.237279
586.3985	0.205210
587.0804	0.216568
587.7624	0.228644
588.4445	0.204746
589.1266	0.176879
589.8089	0.165119
590.4913	0.152199
591.1737	0.132776
591.8563	0.136112
592.5389	0.154817
593.2217	0.205654
593.9046	0.194697
594.5875	0.173290
595.2705	0.201621
595.9537	0.176287
596.6369	0.147913
597.3203	0.152389
598.0037	0.147174
598.6872	0.158406
599.3709	0.184099
600.0546	0.185745
600.7384	0.183909
601.4223	0.186337
602.1064	0.173163
602.7905	0.172445
603.4747	0.191171
604.1590	0.177237
604.8434	0.155640
605.5279	0.169278
606.2125	0.174978
606.8972	0.157519
607.5819	0.161573
608.2668	0.154416
608.9518	0.142340
609.6369	0.133220
610.3220	0.153614
611.0073	0.141094
611.6927	0.140630
612.3781	0.131657
613.0637	0.134930
613.7493	0.129968
614.4351	0.131552
615.1209	0.127498
615.8068	0.136175
616.4929	0.115971
617.1790	0.113881
617.8652	0.115401
618.5515	0.100813
619.2379	0.090511
619.9244	0.093973
620.6110	0.095578
621.2977	0.073326
621.9845	0.083628
622.6714	0.085212
623.3584	0.090258
624.0454	0.087703
624.7326	0.093551
625.4199	0.084431
626.1072	0.078541
626.7947	0.072038
627.4822	0.072418
628.1698	0.064016
628.8576	0.059076
629.5454	0.063045
630.2333	0.060068
630.9213	0.059498
631.6094	0.054072
632.2976	0.052425
632.9859	0.047190
633.6743	0.047211
634.3628	0.044065
635.0514	0.040877
635.7400	0.042102
636.4288	0.045311
637.1177	0.043833
637.8066	0.040666
638.4957	0.042334
639.1848	0.042946
639.8740	0.037004
640.5633	0.038226
641.2528	0.035888
641.9423	0.032319
642.6319	0.029484
643.3216	0.032008
644.0113	0.030033
644.7012	0.026770
645.3912	0.028653
646.0812	0.026998
646.7714	0.024853
647.4616	0.025155
648.1520	0.028071
648.8424	0.033376
649.5329	0.035406
650.2236	0.030414
650.9143	0.029182
651.6051	0.029156
652.2960	0.031254
652.9870	0.029844
653.6780	0.032665
654.3692	0.035164
655.0605	0.066338
655.7518	0.963226
656.4433	1.000000
657.1348	0.876039
657.8264	0.537166
658.5181	0.415426
659.2099	0.333366
659.9018	0.098300
660.5938	0.031696
661.2859	0.026093
661.9781	0.022746
662.6704	0.022068
663.3627	0.022111
664.0552	0.020611
664.7477	0.022973
665.4403	0.026034
666.1330	0.024010
666.8259	0.022031
667.5188	0.025020
668.2117	0.022099
668.9048	0.022194
669.5980	0.020420
670.2913	0.022954
670.9846	0.022531
671.6781	0.028337
672.3716	0.033446
673.0652	0.033129
673.7589	0.027915
674.4527	0.028232
675.1466	0.028696
675.8406	0.025783
676.5347	0.026289
677.2288	0.023503
677.9231	0.027640
678.6174	0.030892
679.3119	0.033193
680.0064	0.034354
680.7010	0.033889
681.3957	0.036486
682.0905	0.033826
682.7854	0.031145
683.4803	0.033172
684.1754	0.031863
684.8705	0.038471
685.5658	0.045902
686.2611	0.043981
686.9565	0.043305
687.6520	0.044720
688.3476	0.039125
689.0433	0.037246
689.7390	0.036338
690.4349	0.034734
691.1308	0.037795
691.8269	0.037584
692.5230	0.038302
693.2192	0.039906
693.9155	0.038851
694.6119	0.032538
695.3083	0.034903
696.0049	0.031060
696.7016	0.037056
697.3983	0.039547
698.0951	0.039167
698.7920	0.038808
699.4890	0.035768
700.1861	0.032538
700.8833	0.030279
701.5806	0.029203
702.2779	0.030153
702.9753	0.029266
703.6729	0.026733
704.3705	0.031504
705.0682	0.025318
705.7660	0.024347
706.4638	0.028569
707.1618	0.039885
707.8599	0.039231
708.5580	0.035029
709.2562	0.033995
709.9545	0.035262
710.6529	0.034987
711.3514	0.033066
712.0500	0.031419
712.7486	0.030047
713.4474	0.032728
714.1462	0.034375
714.8451	0.034755
715.5441	0.036127
716.2432	0.032644
716.9424	0.028422
717.6416	0.026859
718.3410	0.029646
719.0404	0.030237
719.7399	0.028590
720.4395	0.027450
721.1392	0.031398
721.8390	0.029942
722.5388	0.030005
723.2388	0.028063
723.9388	0.030047
724.6389	0.027366
725.3391	0.032285
726.0394	0.035726
726.7398	0.034755
727.4403	0.030702
728.1408	0.032517
728.8414	0.035283
729.5421	0.035621
730.2429	0.035241
730.9438	0.044086
731.6448	0.043601
732.3458	0.040096
733.0470	0.041194
733.7482	0.046810
734.4495	0.053038
735.1509	0.048119
735.8524	0.050019
736.5539	0.046641
737.2556	0.050990
737.9573	0.044319
738.6591	0.040920
739.3610	0.045248
740.0630	0.045818
740.7651	0.040328
741.4672	0.035367
742.1695	0.035388
742.8718	0.034924
743.5742	0.031039
744.2767	0.030068
744.9792	0.030132
745.6819	0.028949
746.3846	0.029076
747.0874	0.029752
747.7903	0.031736
748.4933	0.028590
749.1964	0.031546
749.8995	0.034396
750.6028	0.042693
751.3061	0.040371
752.0095	0.040920
752.7130	0.038260
753.4166	0.038196
754.1202	0.038893
754.8239	0.040286
755.5278	0.041954
756.2317	0.045121
756.9356	0.050314
757.6397	0.058991
758.3438	0.057513
759.0481	0.053650
759.7524	0.059941
760.4568	0.061313
761.1613	0.061926
761.8658	0.051497
762.5705	0.049343
763.2752	0.049998
763.9800	0.051349
764.6849	0.059160
765.3898	0.057640
766.0949	0.052257
766.8000	0.042799
767.5052	0.037880
768.2105	0.043981
768.9159	0.050737
769.6214	0.047612
770.3269	0.044973
771.0325	0.047908
771.7382	0.045438
772.4440	0.041194
773.1499	0.039020
773.8558	0.036127
774.5618	0.033129
775.2679	0.031250
775.9741	0.029878
776.6804	0.024959
777.3868	0.026416
778.0932	0.027514
778.7997	0.029709
779.5063	0.030110
780.2130	0.029963
780.9197	0.030617
781.6265	0.036465
782.3335	0.036887
783.0405	0.032559
783.7475	0.035494
784.4547	0.030955
785.1619	0.028084
785.8692	0.028949
786.5766	0.028802
787.2841	0.029013
787.9917	0.031377
788.6993	0.031187
789.4070	0.030364
790.1148	0.024790
790.8227	0.024009
791.5306	0.024769
792.2387	0.021518
792.9468	0.020378
793.6550	0.022869
794.3632	0.031884
795.0716	0.031124
795.7800	0.028400
796.4885	0.025128
797.1971	0.020188
797.9058	0.024516
798.6145	0.023840
799.3233	0.022616
800.0322	0.021729
800.7412	0.018267
801.4503	0.019217
802.1594	0.018541
802.8686	0.015945
803.5779	0.019534
804.2873	0.017190
804.9968	0.016726
805.7063	0.017148
806.4159	0.023777
807.1256	0.023313
807.8354	0.024305
808.5452	0.024241
809.2551	0.021708
809.9651	0.019745
810.6752	0.018647
811.3853	0.018372
812.0956	0.017549
812.8059	0.015966
813.5163	0.015860
814.2267	0.018056
814.9373	0.016641
815.6479	0.015755
816.3586	0.013981
817.0694	0.014425
817.7802	0.015945
818.4912	0.014783
819.2022	0.013179
819.9133	0.013496
820.6244	0.013855
821.3357	0.015016
822.0470	0.012883
822.7584	0.011976
823.4698	0.011743
824.1814	0.011110
824.8930	0.012208
825.6047	0.012947
826.3165	0.013242
827.0283	0.012060
827.7402	0.013158
828.4522	0.011659
829.1643	0.013094
829.8765	0.011764
830.5887	0.009527
831.3010	0.008218
832.0134	0.008070
832.7259	0.008724
833.4384	0.009083
834.1510	0.009949
834.8637	0.010118
835.5765	0.011321
836.2893	0.009463
837.0022	0.008978
837.7152	0.006402
838.4283	0.006845
839.1414	0.006212
839.8546	0.007183
840.5679	0.007985
841.2813	0.006824
841.9947	0.006740
842.7082	0.007014
843.4218	0.005051
844.1355	0.005009
844.8492	0.003679
845.5631	0.005748
846.2770	0.004354
846.9909	0.005199
847.7050	0.006381
848.4191	0.005642
849.1333	0.004903
849.8475	0.006107
850.5619	0.005114
851.2763	0.004038
851.9908	0.005157
852.7053	0.009632
853.4200	0.014699
854.1347	0.014425
854.8495	0.014826
855.5643	0.012060
856.2792	0.009400
856.9942	0.011701
857.7093	0.010793
858.4245	0.012292
859.1397	0.009632
859.8550	0.010244
860.5704	0.007627
861.2858	0.007289
862.0013	0.006698
862.7169	0.006022
863.4326	0.006128
864.1483	0.006698
864.8642	0.006423
865.5800	0.005980
866.2960	0.005558
867.0120	0.004903
867.7281	0.005135
868.4443	0.006254
869.1606	0.005114
869.8769	0.005157
870.5933	0.004565
871.3097	0.005748
872.0263	0.004354
872.7429	0.004206
873.4596	0.005621
874.1763	0.005304
874.8932	0.004544
875.6101	0.007162
876.3270	0.005452
877.0441	0.005600
877.7612	0.006930
878.4784	0.006592
879.1957	0.006803
879.9130	0.007859
880.6304	0.007880
881.3479	0.007247
882.0654	0.006740
882.7831	0.006592
883.5007	0.005093
884.2185	0.005178
884.9363	0.004988
885.6542	0.006888
886.3722	0.007458
887.0903	0.005832
887.8084	0.005114
888.5266	0.005811
889.2448	0.005304
889.9632	0.004164
890.6816	0.005178
891.4001	0.005642
892.1186	0.005072
892.8372	0.005621
893.5559	0.004798
894.2747	0.004249
894.9935	0.003404
895.7124	0.003869
896.4314	0.005368
897.1504	0.003193
897.8695	0.004354
898.5887	0.005283
899.3079	0.004629
900.0272	0.003446
900.7466	0.004396
901.4661	0.004206
902.1856	0.003636
902.9052	0.004354
903.6249	0.003869
904.3446	0.002518
905.0644	0.004819
905.7843	0.004861
906.5043	0.006803
907.2243	0.004523
907.9444	0.003932
908.6645	0.003700
909.3847	0.003341
910.1050	0.004502
910.8254	0.004629
911.5458	0.004882
912.2663	0.003299
912.9869	0.003890
913.7075	0.003193
914.4283	0.003383
915.1490	0.002349
915.8699	0.003172
916.5908	0.004439
917.3118	0.002792
918.0328	0.004354
918.7539	0.005051
919.4751	0.003299
920.1964	0.004544
920.9177	0.002792
921.6391	0.003278
922.3606	0.003172
923.0821	0.001483
923.8037	0.004882
924.5254	0.001990
925.2471	0.003700
925.9689	0.003995
926.6908	0.001631
927.4127	0.001589
928.1347	0.003383
928.8568	0.002180
929.5789	0.002201
930.3011	0.001736
931.0234	0.002771
931.7457	0.001652
932.4681	0.001272
933.1906	0.000744
933.9131	0.002792
934.6358	0.000512
935.3584	0.002686
936.0812	0.000723
936.8040	0.001842
937.5269	0.000280
938.2498	0.001863
938.9728	0.001842
939.6959	0.000132
940.4190	0.000280
941.1422	0.001589
941.8655	0.001145
942.5889	-0.000670
943.3123	0.001462
944.0357	0.000850
944.7593	0.001926
945.4829	0.001736
946.2066	0.001990
946.9303	0.000512
947.6541	0.000111
948.3780	0.000174
949.1019	0.002623
949.8259	0.000090
950.5500	0.002496
951.2741	0.000871
951.9983	0.001061
952.7226	0.001990
953.4469	0.000786
954.1713	0.001293
954.8958	0.001884
955.6203	-0.000227
956.3449	0.001884
957.0696	0.001061
957.7943	0.001758
958.5191	0.001378
959.2439	0.000449
959.9688	0.000744
960.6938	0.000913
961.4189	0.002053
962.1440	0.000153
962.8692	0.000681
963.5944	0.001420
964.3197	0.002074
965.0451	0.001061
965.7705	0.000470
966.4960	0.001948
967.2216	0.000744
967.9472	0.001124
968.6729	0.000132
969.3987	0.000554
970.1245	0.000026
970.8504	-0.000016
971.5763	0.000913
972.3023	0.002285
973.0284	0.000829
973.7545	0.000976
974.4807	0.000005
975.2070	0.000153
975.9333	0.000575
976.6597	0.000618
977.3862	0.000153
978.1127	-0.000164
978.8393	-0.000734
979.5659	0.000132
980.2926	-0.000860
981.0194	0.000660
981.7462	-0.000523
982.4731	0.001272
983.2001	-0.000206
983.9271	0.000575
984.6542	0.000216
985.3814	0.000554
986.1086	-0.000206
986.8358	0.000871
987.5632	-0.001261
988.2906	0.002032
989.0180	0.000744
989.7456	-0.000691
990.4732	-0.000185
991.2008	-0.000607
991.9285	0.000153
992.6563	0.000871
993.3841	0.000385
994.1120	0.000322
994.8400	0.000533
995.5680	0.001378
996.2961	-0.000248
997.0242	0.001272
997.7524	-0.000628
998.4807	0.000280
999.2090	-0.000121
999.9374	0.000639
1000.67	0.000596
1001.39	-0.001304
1002.12	0.000238
1002.85	0.001948
1003.58	-0.000523
1004.31	0.000639
1005.04	-0.000164
1005.77	0.000512
1006.5	0.000153
1007.22	0.000216
1007.95	-0.000058
1008.68	-0.001093
1009.41	0.000005
1010.14	-0.000185
1010.87	0.000406
1011.6	-0.000248
1012.33	0.000343
1013.06	0.000829
1013.79	0.002159
1014.52	0.000765
1015.25	0.000428
1015.98	-0.000333
1016.71	0.000301
1017.44	0.000406
1018.17	0.001420
1018.9	0.000955
1019.63	0.000850
1020.36	-0.000185
1021.09	0.000892
1021.82	0.000090
1022.55	0.000406
1023.03	0.000132