File: Auto_Polymerization/Spectra/spectrum_2025-06-19_12-29-59.txt
# Wavelength (nm)	Intensity (a.u.)
197.7802	0.000825
198.3922	0.001163
199.0044	0.001247
199.6168	-0.000927
200.2292	-0.000019
200.8418	-0.000040
201.4546	0.000086
202.0674	-0.000758
202.6805	0.001691
203.2936	0.000318
203.9069	0.001311
204.5203	0.000023
205.1338	0.000107
205.7475	0.000065
206.3614	0.000023
206.9753	0.001269
207.5894	0.000445
208.2036	0.000002
208.8180	0.000403
209.4325	-0.000547
210.0471	0.001163
210.6618	-0.000843
211.2767	0.001290
211.8918	0.001459
212.5069	0.000150
213.1222	0.000065
213.7376	0.001395
214.3532	0.000297
214.9689	0.000466
215.5847	0.000783
216.2007	0.000466
216.8168	-0.000463
217.4330	-0.000125
218.0494	0.000910
218.6659	-0.000758
219.2825	0.001585
219.8992	0.001480
220.5161	0.000213
221.1332	0.001733
221.7503	-0.000378
222.3676	0.000382
222.9850	-0.001159
223.6026	0.000065
224.2203	-0.000230
224.8381	-0.001096
225.4561	-0.000062
226.0742	-0.000357
226.6924	-0.000758
227.3107	0.000762
227.9292	-0.000653
228.5478	-0.000442
229.1666	-0.000484
229.7855	0.001079
230.4045	0.000593
231.0236	0.000171
231.6429	-0.000230
232.2623	0.001036
232.8818	-0.000209
233.5015	0.000910
234.1213	-0.000505
234.7413	-0.000378
235.3613	0.000466
235.9815	0.000192
236.6018	0.000340
237.2223	-0.000167
237.8429	0.000255
238.4636	0.001649
239.0845	0.000318
239.7055	-0.000589
240.3266	0.000445
240.9478	-0.000927
241.5692	0.000635
242.1907	0.000825
242.8124	-0.001518
243.4341	0.000065
244.0560	-0.000336
244.6781	0.000297
245.3002	0.000044
245.9225	-0.000336
246.5449	0.000086
247.1675	-0.000083
247.7902	0.000825
248.4130	0.000318
249.0359	0.000530
249.6590	0.002155
250.2822	-0.000125
250.9056	0.000382
251.5290	-0.000526
252.1526	0.001290
252.7763	-0.000167
253.4002	-0.000040
254.0242	0.000128
254.6483	0.000741
255.2725	-0.001244
255.8969	0.000508
256.5214	-0.000801
257.1460	0.001522
257.7708	-0.000653
258.3957	0.001057
259.0207	-0.001033
259.6459	0.000403
260.2711	-0.001033
260.8965	0.000487
261.5221	-0.000758
262.1477	0.000318
262.7735	0.000107
263.3995	0.000593
264.0255	0.001163
264.6517	-0.000737
265.2780	-0.000252
265.9044	0.001353
266.5310	-0.001096
267.1577	0.001057
267.7845	-0.001054
268.4114	0.000994
269.0385	0.000614
269.6657	-0.000062
270.2931	-0.000463
270.9205	0.000867
271.5481	0.000783
272.1758	0.000508
272.8037	0.001437
273.4316	0.000255
274.0597	-0.000315
274.6880	0.001036
275.3163	-0.001096
275.9448	0.000044
276.5734	-0.000188
277.2022	0.001627
277.8310	0.001057
278.4600	0.001269
279.0891	-0.001202
279.7184	0.001881
280.3477	-0.000463
280.9772	0.000086
281.6069	-0.000125
282.2366	0.001649
282.8665	0.000973
283.4965	0.000508
284.1266	0.000867
284.7569	0.000551
285.3873	-0.000991
286.0178	0.000044
286.6484	0.000593
287.2792	0.000720
287.9101	0.000487
288.5411	0.000466
289.1723	0.000931
289.8035	0.000804
290.4349	0.000318
291.0665	-0.001328
291.6981	-0.000420
292.3299	0.000382
292.9618	0.000255
293.5938	0.001944
294.2260	0.000846
294.8582	0.000762
295.4906	0.001374
296.1232	0.000888
296.7558	-0.000505
297.3886	-0.000969
298.0215	0.001712
298.6545	0.001395
299.2877	-0.000230
299.9210	-0.000188
300.5544	-0.001223
301.1879	0.000361
301.8215	0.000720
302.4553	0.001121
303.0892	0.000044
303.7233	-0.000864
304.3574	-0.000357
304.9917	0.000276
305.6261	-0.000273
306.2606	-0.000336
306.8953	0.002261
307.5301	0.000023
308.1650	-0.000737
308.8000	-0.000463
309.4351	-0.001054
310.0704	0.000530
310.7058	0.000361
311.3413	0.000867
311.9770	0.000445
312.6127	0.001374
313.2486	0.000044
313.8846	0.001754
314.5208	0.000466
315.1570	0.000340
315.7934	0.000804
316.4299	-0.000083
317.0666	-0.001202
317.7033	-0.000378
318.3402	-0.000822
318.9772	-0.000463
319.6143	0.000171
320.2516	0.000086
320.8890	0.000382
321.5265	0.000825
322.1641	0.000952
322.8018	-0.001033
323.4397	0.000508
324.0777	-0.000125
324.7158	0.000445
325.3540	0.000762
325.9924	-0.000716
326.6308	0.002007
327.2694	0.000403
327.9082	0.001353
328.5470	0.000318
329.1860	0.000445
329.8251	0.001944
330.4643	0.001100
331.1036	0.000720
331.7431	0.000213
332.3826	0.000150
333.0223	0.001269
333.6622	0.000994
334.3021	0.000952
334.9422	-0.000969
335.5823	0.000593
336.2227	0.000044
336.8631	0.000297
337.5036	-0.000146
338.1443	0.000551
338.7851	0.000192
339.4260	0.001163
340.0670	0.000234
340.7082	0.001057
341.3495	0.001121
341.9909	0.000783
342.6324	-0.000463
343.2740	0.001606
343.9158	0.000297
344.5577	0.000635
345.1997	-0.000083
345.8418	-0.000294
346.4840	-0.000188
347.1264	0.001670
347.7689	-0.000420
348.4115	0.000128
349.0542	0.000720
349.6971	-0.000991
350.3400	0.000128
350.9831	0.000614
351.6263	-0.000674
352.2696	0.001353
352.9131	0.001015
353.5566	0.000192
354.2003	0.000593
354.8441	0.000466
355.4881	-0.000188
356.1321	0.000445
356.7763	0.001100
357.4206	0.000846
358.0650	0.000867
358.7095	-0.000104
359.3541	0.001585
359.9989	0.000656
360.6438	-0.000822
361.2888	-0.000230
361.9339	0.001057
362.5791	0.001163
363.2245	0.001100
363.8699	0.000107
364.5155	0.000255
365.1612	0.000445
365.8071	-0.000442
366.4530	0.000551
367.0991	0.000635
367.7453	0.001142
368.3916	-0.000083
369.0380	0.000255
369.6845	-0.000230
370.3312	0.000888
370.9780	-0.000779
371.6249	0.002261
372.2719	0.001395
372.9190	0.000741
373.5663	0.000361
374.2136	0.000762
374.8611	0.000276
375.5087	0.001184
376.1564	0.000635
376.8043	-0.000589
377.4522	0.000382
378.1003	-0.000125
378.7485	-0.001307
379.3968	0.001459
380.0452	0.000572
380.6938	0.000508
381.3424	0.000614
381.9912	0.001691
382.6401	0.000762
383.2891	0.001817
383.9382	-0.000062
384.5875	0.000677
385.2368	-0.000442
385.8863	-0.000083
386.5359	-0.000547
387.1856	0.001459
387.8355	-0.000463
388.4854	0.000318
389.1355	-0.000252
389.7856	0.001184
390.4359	0.000593
391.0863	0.001585
391.7369	0.000973
392.3875	0.001247
393.0383	0.001184
393.6891	0.001269
394.3401	0.000593
394.9912	0.002219
395.6425	0.001395
396.2938	0.001986
396.9453	0.001459
397.5968	0.002894
398.2485	0.003886
398.9003	0.004393
399.5522	0.006103
400.2043	0.004689
400.8564	0.006694
401.5087	0.004499
402.1610	0.006103
402.8135	0.004900
403.4661	0.005280
404.1189	0.005998
404.7717	0.006082
405.4246	0.008278
406.0777	0.006167
406.7309	0.009270
407.3842	0.007053
408.0376	0.007835
408.6911	0.008383
409.3448	0.009946
409.9985	0.008595
410.6524	0.010157
411.3064	0.009460
411.9605	0.009946
412.6147	0.009904
413.2690	0.011761
413.9234	0.011360
414.5780	0.011466
415.2326	0.010664
415.8874	0.009967
416.5423	0.014147
417.1973	0.013472
417.8524	0.013176
418.5077	0.013788
419.1630	0.013049
419.8185	0.013640
420.4741	0.014253
421.1298	0.016406
421.7856	0.019003
422.4415	0.017905
423.0975	0.017947
423.7536	0.018306
424.4099	0.017631
425.0663	0.018475
425.7228	0.017525
426.3793	0.014612
427.0361	0.015224
427.6929	0.018433
428.3498	0.018602
429.0068	0.019024
429.6640	0.019446
430.3213	0.021262
430.9787	0.022360
431.6362	0.021093
432.2938	0.019784
432.9515	0.020734
433.6093	0.018285
434.2673	0.024028
434.9253	0.020840
435.5835	0.023310
436.2418	0.019446
436.9001	0.022170
437.5586	0.020734
438.2173	0.020397
438.8760	0.021283
439.5348	0.020798
440.1938	0.019848
440.8528	0.022487
441.5120	0.026878
442.1713	0.025442
442.8307	0.024640
443.4902	0.026350
444.1498	0.023901
444.8095	0.023606
445.4694	0.024894
446.1293	0.024176
446.7894	0.022972
447.4496	0.025020
448.1098	0.024049
448.7702	0.021389
449.4307	0.020819
450.0914	0.020967
450.7521	0.021304
451.4129	0.020819
452.0739	0.019383
452.7349	0.018581
453.3961	0.019742
454.0574	0.018602
454.7188	0.016807
455.3803	0.018243
456.0419	0.018116
456.7036	0.018412
457.3654	0.015161
458.0274	0.017525
458.6894	0.018602
459.3516	0.017990
460.0138	0.018686
460.6762	0.014844
461.3387	0.015604
462.0013	0.014823
462.6640	0.014422
463.3268	0.013366
463.9897	0.014358
464.6528	0.013155
465.3159	0.015161
465.9792	0.014759
466.6425	0.012142
467.3060	0.011635
467.9696	0.012057
468.6333	0.011593
469.2970	0.010262
469.9610	0.010664
470.6250	0.010178
471.2891	0.008975
471.9533	0.008637
472.6177	0.007623
473.2821	0.009566
473.9467	0.008320
474.6113	0.008679
475.2761	0.008151
475.9410	0.009059
476.6060	0.008130
477.2711	0.007455
477.9363	0.005280
478.6016	0.006863
479.2670	0.006716
479.9325	0.008067
480.5982	0.007687
481.2639	0.007222
481.9298	0.006906
482.5957	0.006378
483.2618	0.006420
483.9280	0.006716
484.5943	0.007412
485.2606	0.005850
485.9271	0.012880
486.5937	0.017124
487.2605	0.010537
487.9273	0.006167
488.5942	0.006948
489.2612	0.005597
489.9284	0.004900
490.5956	0.004562
491.2630	0.005111
491.9304	0.004435
492.5980	0.005005
493.2657	0.003485
493.9334	0.003781
494.6013	0.002324
495.2693	0.003654
495.9374	0.003570
496.6056	0.003696
497.2739	0.004119
497.9423	0.004478
498.6109	0.003380
499.2795	0.004583
499.9482	0.004710
500.6171	0.003274
501.2860	0.003021
501.9551	0.002535
502.6242	0.004224
503.2935	0.003886
503.9628	0.003802
504.6323	0.004098
505.3019	0.003675
505.9716	0.002662
506.6414	0.003823
507.3113	0.002197
507.9813	0.004309
508.6514	0.002050
509.3216	0.003000
509.9919	0.003063
510.6623	0.004435
511.3329	0.003042
512.0035	0.002599
512.6742	0.003211
513.3451	0.004794
514.0160	0.002979
514.6871	0.003633
515.3582	0.000994
516.0295	0.003929
516.7008	0.001585
517.3723	0.002155
518.0439	0.002535
518.7155	0.003211
519.3873	0.003506
520.0592	0.002577
520.7312	0.003148
521.4033	0.003718
522.0755	0.002050
522.7478	0.004267
523.4202	0.003675
524.0927	0.002831
524.7653	0.003359
525.4380	0.004351
526.1108	0.004562
526.7837	0.004372
527.4568	0.004288
528.1299	0.004478
528.8031	0.005575
529.4765	0.005491
530.1499	0.005322
530.8234	0.005322
531.4971	0.005174
532.1708	0.004794
532.8447	0.004794
533.5186	0.004562
534.1927	0.007623
534.8668	0.007349
535.5411	0.006694
536.2155	0.008109
536.8899	0.008595
537.5645	0.007307
538.2392	0.008573
538.9139	0.010474
539.5888	0.008236
540.2638	0.010072
540.9389	0.010706
541.6140	0.009524
542.2893	0.010199
542.9647	0.010917
543.6402	0.012479
544.3158	0.013640
544.9915	0.014907
545.6673	0.015076
546.3432	0.014992
547.0192	0.013831
547.6953	0.014971
548.3715	0.018539
549.0478	0.020481
549.7242	0.017800
550.4007	0.017779
551.0773	0.015456
551.7540	0.017166
552.4308	0.019742
553.1077	0.020903
553.7847	0.023796
554.4618	0.024112
555.1390	0.019510
555.8163	0.024915
556.4937	0.026857
557.1712	0.021368
557.8488	0.025654
558.5266	0.027321
559.2044	0.024345
559.8823	0.025759
560.5603	0.029032
561.2384	0.032557
561.9166	0.033212
562.5949	0.030911
563.2733	0.031755
563.9519	0.035175
564.6305	0.035767
565.3092	0.038363
565.9880	0.038237
566.6669	0.040686
567.3459	0.045267
568.0250	0.053797
568.7043	0.055465
569.3836	0.069969
570.0630	0.089794
570.7425	0.097838
571.4221	0.114136
572.1018	0.128958
572.7816	0.126952
573.4615	0.120618
574.1415	0.146354
574.8216	0.164954
575.5018	0.168734
576.1821	0.151717
576.8626	0.164342
577.5431	0.179058
578.2237	0.237920
578.9044	0.201437
579.5851	0.185117
580.2660	0.199959
580.9470	0.194575
581.6281	0.276281
582.3093	0.306831
582.9906	0.246998
583.6720	0.200740
584.3535	0.187925
585.0351	0.202704
585.7167	0.230657
586.3985	0.208172
587.0804	0.195314
587.7624	0.221008
588.4445	0.200403
589.1266	0.185370
589.8089	0.157460
590.4913	0.153237
591.1737	0.134193
591.8563	0.126403
592.5389	0.131491
593.2217	0.191282
593.9046	0.191071
594.5875	0.167784
595.2705	0.188516
595.9537	0.182731
596.6369	0.152414
597.3203	0.141118
598.0037	0.147135
598.6872	0.136896
599.3709	0.180662
600.0546	0.169346
600.7384	0.179459
601.4223	0.182626
602.1064	0.167129
602.7905	0.166242
603.4747	0.178614
604.1590	0.181042
604.8434	0.159275
605.5279	0.157058
606.2125	0.173970
606.8972	0.152899
607.5819	0.159170
608.2668	0.152139
608.9518	0.143631
609.6369	0.134658
610.3220	0.144644
611.0073	0.139387
611.6927	0.137424
612.3781	0.131217
613.0637	0.127606
613.7493	0.124038
614.4351	0.124397
615.1209	0.124249
615.8068	0.128662
616.4929	0.115910
617.1790	0.109365
617.8652	0.109323
618.5515	0.107592
619.2379	0.090427
619.9244	0.088041
620.6110	0.097394
621.2977	0.082468
621.9845	0.076092
622.6714	0.079997
623.3584	0.088379
624.0454	0.087239
624.7326	0.089202
625.4199	0.085022
626.1072	0.078161
626.7947	0.072080
627.4822	0.072165
628.1698	0.068639
628.8576	0.056541
629.5454	0.061271
630.2333	0.063888
630.9213	0.058230
631.6094	0.052678
632.2976	0.051432
632.9859	0.047695
633.6743	0.043832
634.3628	0.043304
635.0514	0.042396
635.7400	0.039250
636.4288	0.045774
637.1177	0.045985
637.8066	0.042670
638.4957	0.040263
639.1848	0.040897
639.8740	0.041278
640.5633	0.037331
641.2528	0.036246
641.9423	0.031532
642.6319	0.030578
643.3216	0.031035
644.0113	0.031916
644.7012	0.027303
645.3912	0.026299
646.0812	0.026550
646.7714	0.023362
647.4616	0.024043
648.1520	0.029079
648.8424	0.033221
649.5329	0.034355
650.2236	0.031695
650.9143	0.030391
651.6051	0.028518
652.2960	0.030808
652.9870	0.030822
653.6780	0.031290
654.3692	0.033743
655.0605	0.044339
655.7518	0.519893
656.4433	1.000000
657.1348	1.000000
657.8264	0.604895
658.5181	0.446877
659.2099	0.369993
659.9018	0.168298
660.5938	0.039306
661.2859	0.026747
661.9781	0.025221
662.6704	0.022406
663.3627	0.019915
664.0552	0.022809
664.7477	0.021711
665.4403	0.025010
666.1330	0.025226
666.8259	0.021481
667.5188	0.022718
668.2117	0.022955
668.9048	0.021093
669.5980	0.020608
670.2913	0.022339
670.9846	0.023331
671.6781	0.027131
672.3716	0.032980
673.0652	0.033740
673.7589	0.032072
674.4527	0.029559
675.1466	0.025084
675.8406	0.027955
676.5347	0.026012
677.2288	0.022212
677.9231	0.027089
678.6174	0.030045
679.3119	0.031354
680.0064	0.035471
680.7010	0.036104
681.3957	0.033339
682.0905	0.036695
682.7854	0.031628
683.4803	0.029200
684.1754	0.031523
684.8705	0.036843
685.5658	0.043008
686.2611	0.045584
686.9565	0.044317
687.6520	0.044359
688.3476	0.041847
689.0433	0.039123
689.7390	0.036864
690.4349	0.034753
691.1308	0.034479
691.8269	0.037836
692.5230	0.037308
693.2192	0.040327
693.9155	0.039166
694.6119	0.034563
695.3083	0.034605
696.0049	0.030699
696.7016	0.033149
697.3983	0.038617
698.0951	0.036400
698.7920	0.039905
699.4890	0.036590
700.1861	0.031417
700.8833	0.032410
701.5806	0.028293
702.2779	0.029222
702.9753	0.030509
703.6729	0.028630
704.3705	0.027596
705.0682	0.026245
705.7660	0.023817
706.4638	0.027364
707.1618	0.034901
707.8599	0.038384
708.5580	0.039060
709.2562	0.036653
709.9545	0.032684
710.6529	0.035978
711.3514	0.032452
712.0500	0.031016
712.7486	0.028757
713.4474	0.029348
714.1462	0.034310
714.8451	0.035555
715.5441	0.035661
716.2432	0.032621
716.9424	0.030277
717.6416	0.026646
718.3410	0.029538
719.0404	0.027997
719.7399	0.028947
720.4395	0.029327
721.1392	0.029813
721.8390	0.030784
722.5388	0.029285
723.2388	0.028989
723.9388	0.029538
724.6389	0.027765
725.3391	0.030657
726.0394	0.033149
726.7398	0.033064
727.4403	0.031080
728.1408	0.032895
728.8414	0.034542
729.5421	0.033719
730.2429	0.036337
730.9438	0.039546
731.6448	0.043451
732.3458	0.041277
733.0470	0.044613
733.7482	0.043642
734.4495	0.051833
735.1509	0.049701
735.8524	0.050946
736.5539	0.049046
737.2556	0.047210
737.9573	0.046365
738.6591	0.040432
739.3610	0.046006
740.0630	0.047167
740.7651	0.040179
741.4672	0.036421
742.1695	0.034310
742.8718	0.035957
743.5742	0.031671
744.2767	0.029834
744.9792	0.030573
745.6819	0.030003
746.3846	0.028799
747.0874	0.028145
747.7903	0.032431
748.4933	0.027321
749.1964	0.030615
749.8995	0.035006
750.6028	0.039503
751.3061	0.040158
752.0095	0.042354
752.7130	0.038448
753.4166	0.036484
754.1202	0.045647
754.8239	0.039799
755.5278	0.040031
756.2317	0.043325
756.9356	0.049363
757.6397	0.057702
758.3438	0.058294
759.0481	0.054768
759.7524	0.059856
760.4568	0.062263
761.1613	0.062981
761.8658	0.055929
762.5705	0.049131
763.2752	0.050503
763.9800	0.048519
764.6849	0.054050
765.3898	0.058420
766.0949	0.053923
766.8000	0.044697
767.5052	0.037244
768.2105	0.041298
768.9159	0.046597
769.6214	0.046428
770.3269	0.044528
771.0325	0.047442
771.7382	0.048244
772.4440	0.041910
773.1499	0.042607
773.8558	0.037054
774.5618	0.035365
775.2679	0.031438
775.9741	0.028018
776.6804	0.024915
777.3868	0.025400
778.0932	0.024197
778.7997	0.027680
779.5063	0.029559
780.2130	0.031607
780.9197	0.029644
781.6265	0.034500
782.3335	0.034183
783.0405	0.035091
783.7475	0.034331
784.4547	0.030826
785.1619	0.029581
785.8692	0.030826
786.5766	0.027723
787.2841	0.025780
787.9917	0.029982
788.6993	0.030868
789.4070	0.032220
790.1148	0.027828
790.8227	0.025738
791.5306	0.022698
792.2387	0.023479
792.9468	0.021874
793.6550	0.023395
794.3632	0.028145
795.0716	0.030974
795.7800	0.031227
796.4885	0.024661
797.1971	0.022698
797.9058	0.022360
798.6145	0.022677
799.3233	0.021093
800.0322	0.021642
800.7412	0.018623
801.4503	0.021030
802.1594	0.018074
802.8686	0.017800
803.5779	0.018433
804.2873	0.018475
804.9968	0.017483
805.7063	0.017694
806.4159	0.022170
807.1256	0.024070
807.8354	0.022487
808.5452	0.022740
809.2551	0.022360
809.9651	0.020375
810.6752	0.018454
811.3853	0.019256
812.0956	0.016512
812.8059	0.015710
813.5163	0.015498
814.2267	0.019130
814.9373	0.016997
815.6479	0.015055
816.3586	0.011973
817.0694	0.013619
817.7802	0.015161
818.4912	0.014443
819.2022	0.013366
819.9133	0.013704
820.6244	0.014548
821.3357	0.015414
822.0470	0.014781
822.7584	0.013366
823.4698	0.012205
824.1814	0.012437
824.8930	0.010347
825.6047	0.011973
826.3165	0.013957
827.0283	0.013155
827.7402	0.013746
828.4522	0.011656
829.1643	0.013092
829.8765	0.012163
830.5887	0.010811
831.3010	0.009144
832.0134	0.008193
832.7259	0.008383
833.4384	0.008510
834.1510	0.009714
834.8637	0.011994
835.5765	0.010241
836.2893	0.010241
837.0022	0.007750
837.7152	0.007898
838.4283	0.007813
839.1414	0.007518
839.8546	0.006779
840.5679	0.005554
841.2813	0.005153
841.9947	0.006441
842.7082	0.005343
843.4218	0.006884
844.1355	0.005322
844.8492	0.005829
845.5631	0.005808
846.2770	0.005575
846.9909	0.005174
847.7050	0.005660
848.4191	0.005111
849.1333	0.004372
849.8475	0.004837
850.5619	0.004499
851.2763	0.006230
851.9908	0.005702
852.7053	0.005639
853.4200	0.012500
854.1347	0.013852
854.8495	0.014485
855.5643	0.014274
856.2792	0.011656
856.9942	0.012078
857.7093	0.010854
858.4245	0.009777
859.1397	0.010009
859.8550	0.008954
860.5704	0.007264
861.2858	0.006673
862.0013	0.006737
862.7169	0.004583
863.4326	0.006652
864.1483	0.007243
864.8642	0.005364
865.5800	0.004140
866.2960	0.004752
867.0120	0.004794
867.7281	0.006357
868.4443	0.005238
869.1606	0.005090
869.8769	0.004119
870.5933	0.005132
871.3097	0.005195
872.0263	0.006293
872.7429	0.005048
873.4596	0.004330
874.1763	0.004984
874.8932	0.005428
875.6101	0.006652
876.3270	0.007645
877.0441	0.004562
877.7612	0.005787
878.4784	0.007813
879.1957	0.005723
879.9130	0.007813
880.6304	0.010030
881.3479	0.008278
882.0654	0.005913
882.7831	0.005301
883.5007	0.006948
884.2185	0.006124
884.9363	0.005934
885.6542	0.006568
886.3722	0.005660
887.0903	0.006737
887.8084	0.005280
888.5266	0.006272
889.2448	0.004203
889.9632	0.005343
890.6816	0.004625
891.4001	0.004435
892.1186	0.004921
892.8372	0.003844
893.5559	0.004562
894.2747	0.004858
894.9935	0.004457
895.7124	0.005111
896.4314	0.003971
897.1504	0.004161
897.8695	0.003338
898.5887	0.005280
899.3079	0.003464
900.0272	0.004647
900.7466	0.005153
901.4661	0.004710
902.1856	0.003886
902.9052	0.005090
903.6249	0.003506
904.3446	0.003464
905.0644	0.005280
905.7843	0.005554
906.5043	0.004710
907.2243	0.004435
907.9444	0.004583
908.6645	0.005956
909.3847	0.005027
910.1050	0.003084
910.8254	0.004055
911.5458	0.003696
912.2663	0.003380
912.9869	0.004858
913.7075	0.001543
914.4283	0.001480
915.1490	0.002324
915.8699	0.002873
916.5908	0.004478
917.3118	0.005027
918.0328	0.004330
918.7539	0.005512
919.4751	0.003338
920.1964	0.005048
920.9177	0.003612
921.6391	0.003464
922.3606	0.002430
923.0821	0.003654
923.8037	0.002746
924.5254	0.002894
925.2471	0.002683
925.9689	0.003063
926.6908	0.002831
927.4127	0.001944
928.1347	0.002894
928.8568	0.002134
929.5789	0.003528
930.3011	0.001142
931.0234	0.002514
931.7457	0.002831
932.4681	0.001226
933.1906	0.002050
933.9131	0.001564
934.6358	0.002303
935.3584	0.002345
936.0812	0.002577
936.8040	0.001459
937.5269	0.002704
938.2498	0.001965
938.9728	0.001627
939.6959	0.002577
940.4190	0.002134
941.1422	0.001437
941.8655	0.001353
942.5889	0.001944
943.3123	0.000635
944.0357	0.001839
944.7593	0.000846
945.4829	0.000698
946.2066	0.000487
946.9303	0.000804
947.6541	0.002514
948.3780	0.000318
949.1019	0.001036
949.8259	0.002577
950.5500	0.000741
951.2741	0.001733
951.9983	0.000361
952.7226	0.001395
953.4469	0.000846
954.1713	0.002789
954.8958	0.001606
955.6203	0.000044
956.3449	-0.000209
957.0696	0.001627
957.7943	0.002092
958.5191	0.000297
959.2439	0.001290
959.9688	0.000044
960.6938	-0.000294
961.4189	0.002620
962.1440	-0.000653
962.8692	0.000825
963.5944	0.000846
964.3197	0.001606
965.0451	0.000213
965.7705	0.001522
966.4960	0.000614
967.2216	0.001332
967.9472	0.000171
968.6729	0.001986
969.3987	0.001121
970.1245	0.001817
970.8504	0.000741
971.5763	0.002366
972.3023	0.000762
973.0284	0.000677
973.7545	0.001395
974.4807	0.001459
975.2070	-0.001328
975.9333	0.001311
976.6597	0.000530
977.3862	0.002282
978.1127	-0.000505
978.8393	0.000234
979.5659	-0.000674
980.2926	0.001100
981.0194	0.000635
981.7462	-0.000758
982.4731	0.000952
983.2001	0.000445
983.9271	0.000445
984.6542	0.000297
985.3814	0.000192
986.1086	0.000720
986.8358	0.000593
987.5632	0.000171
988.2906	-0.000315
989.0180	0.000551
989.7456	-0.001476
990.4732	0.000192
991.2008	0.000804
991.9285	0.000234
992.6563	-0.000632
993.3841	0.000530
994.1120	-0.001328
994.8400	0.000530
995.5680	-0.000188
996.2961	0.000107
997.0242	-0.000040
997.7524	0.000530
998.4807	-0.002173
999.2090	0.000171
999.9374	0.003654
1000.67	0.000825
1001.39	0.000445
1002.12	-0.000146
1002.85	0.000910
1003.58	-0.000357
1004.31	0.000044
1005.04	-0.000505
1005.77	0.000698
1006.5	0.000128
1007.22	-0.001159
1007.95	-0.001033
1008.68	0.000931
1009.41	-0.000547
1010.14	0.000107
1010.87	0.001121
1011.6	0.000065
1012.33	0.001100
1013.06	0.000192
1013.79	0.000677
1014.52	0.000023
1015.25	0.000044
1015.98	-0.000737
1016.71	-0.000589
1017.44	0.000677
1018.17	-0.000146
1018.9	0.001627
1019.63	0.000635
1020.36	0.001205
1021.09	0.000593
1021.82	-0.000420
1022.55	-0.000378
1023.03	-0.000484