File: Auto_Polymerization/Spectra/spectrum_2025-06-19_10-37-05.txt
# Wavelength (nm)	Intensity (a.u.)
197.7802	0.000288
198.3922	-0.000704
199.0044	-0.000640
199.6168	0.000436
200.2292	-0.000113
200.8418	-0.000387
201.4546	0.000563
202.0674	0.000690
202.6805	0.000626
203.2936	0.001492
203.9069	0.000584
204.5203	0.001407
205.1338	0.000415
205.7475	0.000267
206.3614	-0.000387
206.9753	0.001006
207.5894	0.000141
208.2036	-0.000493
208.8180	0.001618
209.4325	0.001323
210.0471	-0.000450
210.6618	0.000563
211.2767	0.001618
211.8918	0.000035
212.5069	0.001154
213.1222	-0.000577
213.7376	-0.000239
214.3532	0.001428
214.9689	0.000436
215.5847	-0.000218
216.2007	0.001618
216.8168	-0.000281
217.4330	0.000858
218.0494	0.001196
218.6659	-0.000176
219.2825	0.000225
219.8992	0.001154
220.5161	-0.000387
221.1332	0.000056
221.7503	0.000056
222.3676	0.000099
222.9850	-0.000683
223.6026	0.000837
224.2203	0.000964
224.8381	-0.000218
225.4561	0.000310
226.0742	0.001070
226.6924	0.001428
227.3107	0.001323
227.9292	-0.000408
228.5478	0.000141
229.1666	-0.000091
229.7855	0.000584
230.4045	-0.000830
231.0236	0.000880
231.6429	-0.001611
232.2623	0.000563
232.8818	0.000331
233.5015	0.000711
234.1213	-0.000387
234.7413	0.001238
235.3613	-0.001295
235.9815	0.000626
236.6018	0.000711
237.2223	0.000415
237.8429	0.000099
238.4636	0.000099
239.0845	0.000120
239.7055	0.001070
240.3266	0.000647
240.9478	0.001576
241.5692	0.000668
242.1907	-0.000281
242.8124	-0.000661
243.4341	0.000373
244.0560	-0.000809
244.6781	0.000014
245.3002	0.000521
245.9225	0.000563
246.5449	-0.000450
247.1675	0.000795
247.7902	0.000478
248.4130	0.001471
249.0359	-0.000176
249.6590	-0.000366
250.2822	-0.000091
250.9056	0.000478
251.5290	-0.000936
252.1526	0.000331
252.7763	0.000964
253.4002	0.002357
254.0242	-0.000345
254.6483	0.000352
255.2725	-0.000176
255.8969	0.001154
256.5214	-0.001379
257.1460	0.001196
257.7708	-0.000788
258.3957	0.001407
259.0207	-0.000028
259.6459	0.000246
260.2711	0.000943
260.8965	0.000521
261.5221	-0.000493
262.1477	0.000985
262.7735	-0.000788
263.3995	0.000753
264.0255	-0.000281
264.6517	-0.000535
265.2780	-0.000324
265.9044	-0.000514
266.5310	-0.001253
267.1577	-0.000260
267.7845	0.000099
268.4114	0.000605
269.0385	-0.000640
269.6657	0.000837
270.2931	-0.000197
270.9205	0.000711
271.5481	0.000626
272.1758	0.001238
272.8037	-0.001295
273.4316	-0.000049
274.0597	0.001260
274.6880	-0.000007
275.3163	-0.001105
275.9448	-0.001168
276.5734	-0.000704
277.2022	-0.000218
277.8310	-0.000704
278.4600	-0.000324
279.0891	0.000183
279.7184	0.001281
280.3477	-0.000113
280.9772	0.000077
281.6069	-0.000387
282.2366	-0.000113
282.8665	0.000542
283.4965	0.001766
284.1266	-0.000514
284.7569	0.000753
285.3873	-0.000239
286.0178	-0.000028
286.6484	0.000415
287.2792	0.000162
287.9101	-0.000936
288.5411	-0.000851
289.1723	0.001513
289.8035	0.001217
290.4349	-0.000999
291.0665	0.000267
291.6981	-0.000176
292.3299	0.000225
292.9618	-0.002076
293.5938	0.000647
294.2260	-0.000788
294.8582	0.000331
295.4906	-0.001168
296.1232	0.000352
296.7558	0.000478
297.3886	0.001703
298.0215	0.000500
298.6545	-0.000070
299.2877	0.000795
299.9210	-0.000387
300.5544	0.000141
301.1879	0.001808
301.8215	-0.000894
302.4553	0.000267
303.0892	-0.000197
303.7233	0.000732
304.3574	0.000120
304.9917	0.001914
305.6261	0.000056
306.2606	-0.000746
306.8953	0.000711
307.5301	-0.000281
308.1650	0.000584
308.8000	0.001027
309.4351	0.000288
310.0704	0.000415
310.7058	-0.000218
311.3413	0.000183
311.9770	-0.000577
312.6127	0.000120
313.2486	-0.000218
313.8846	-0.000514
314.5208	-0.000324
315.1570	0.000732
315.7934	0.000901
316.4299	0.002083
317.0666	0.001893
317.7033	-0.000725
318.3402	0.001534
318.9772	0.000943
319.6143	-0.000493
320.2516	0.000204
320.8890	-0.000556
321.5265	0.000204
322.1641	-0.000556
322.8018	-0.001738
323.4397	0.001407
324.0777	0.001070
324.7158	-0.000830
325.3540	-0.001886
325.9924	-0.000091
326.6308	0.001302
327.2694	0.000690
327.9082	-0.000324
328.5470	-0.000915
329.1860	-0.000324
329.8251	0.000457
330.4643	0.001027
331.1036	-0.000809
331.7431	0.000837
332.3826	0.000605
333.0223	0.000267
333.6622	0.000014
334.3021	0.000880
334.9422	0.000880
335.5823	-0.000387
336.2227	0.001281
336.8631	0.000436
337.5036	0.000436
338.1443	-0.000725
338.7851	0.000816
339.4260	0.001872
340.0670	-0.000091
340.7082	0.001471
341.3495	-0.000387
341.9909	-0.000260
342.6324	0.000352
343.2740	0.001006
343.9158	-0.000197
344.5577	0.000310
345.1997	0.000225
345.8418	-0.001020
346.4840	0.000500
347.1264	0.000985
347.7689	0.000077
348.4115	0.000943
349.0542	0.000880
349.6971	0.000985
350.3400	0.000077
350.9831	-0.000007
351.6263	0.000267
352.2696	-0.000239
352.9131	0.000500
353.5566	-0.000324
354.2003	0.001112
354.8441	-0.001126
355.4881	0.000647
356.1321	0.000816
356.7763	-0.000345
357.4206	0.000310
358.0650	0.001260
358.7095	-0.000134
359.3541	0.000457
359.9989	0.000394
360.6438	-0.000070
361.2888	0.000436
361.9339	0.001450
362.5791	0.000837
363.2245	0.000711
363.8699	-0.000556
364.5155	0.000690
365.1612	0.001260
365.8071	0.000331
366.4530	0.001112
367.0991	0.000605
367.7453	0.001787
368.3916	-0.001822
369.0380	0.000120
369.6845	0.000922
370.3312	0.000795
370.9780	0.000837
371.6249	0.000563
372.2719	-0.000936
372.9190	0.001302
373.5663	-0.000387
374.2136	0.001534
374.8611	-0.000619
375.5087	0.001175
376.1564	0.000837
376.8043	-0.000598
377.4522	-0.000113
378.1003	-0.000704
378.7485	0.001091
379.3968	0.000690
380.0452	-0.000619
380.6938	0.000584
381.3424	0.000858
381.9912	0.000943
382.6401	0.000014
383.2891	0.002505
383.9382	0.000922
384.5875	0.000521
385.2368	0.001492
385.8863	0.001471
386.5359	0.001471
387.1856	0.001365
387.8355	0.000795
388.4854	0.002336
389.1355	0.001534
389.7856	0.003075
390.4359	0.002209
391.0863	0.004489
391.7369	0.005693
392.3875	0.006157
393.0383	0.007149
393.6891	0.008817
394.3401	0.008965
394.9912	0.009070
395.6425	0.010231
396.2938	0.012722
396.9453	0.012215
397.5968	0.014960
398.2485	0.015255
398.9003	0.018675
399.5522	0.019076
400.2043	0.019034
400.8564	0.018759
401.5087	0.020343
402.1610	0.019688
402.8135	0.021567
403.4661	0.020364
404.1189	0.022601
404.7717	0.023002
405.4246	0.023805
406.0777	0.024860
406.7309	0.025641
407.3842	0.024375
408.0376	0.025156
408.6911	0.025768
409.3448	0.024058
409.9985	0.026739
410.6524	0.027436
411.3064	0.027330
411.9605	0.028871
412.6147	0.028554
413.2690	0.028660
413.9234	0.029082
414.5780	0.027077
415.2326	0.029167
415.8874	0.030053
416.5423	0.027436
417.1973	0.028871
417.8524	0.029441
418.5077	0.030496
419.1630	0.030855
419.8185	0.028554
420.4741	0.032185
421.1298	0.034254
421.7856	0.035816
422.4415	0.034571
423.0975	0.034296
423.7536	0.033051
424.4099	0.033051
425.0663	0.033536
425.7228	0.032122
426.3793	0.029504
427.0361	0.031320
427.6929	0.032544
428.3498	0.030328
429.0068	0.031087
429.6640	0.034613
430.3213	0.034803
430.9787	0.033958
431.6362	0.030876
432.2938	0.027098
432.9515	0.028069
433.6093	0.032502
434.2673	0.031805
434.9253	0.030222
435.5835	0.029040
436.2418	0.030138
436.9001	0.031784
437.5586	0.030222
438.2173	0.028723
438.8760	0.029293
439.5348	0.029631
440.1938	0.028913
440.8528	0.031172
441.5120	0.034803
442.1713	0.032966
442.8307	0.031531
443.4902	0.031679
444.1498	0.031425
444.8095	0.031932
445.4694	0.030053
446.1293	0.032840
446.7894	0.030708
447.4496	0.029504
448.1098	0.028280
448.7702	0.029631
449.4307	0.027647
450.0914	0.026697
450.7521	0.026380
451.4129	0.024649
452.0739	0.024459
452.7349	0.023382
453.3961	0.024396
454.0574	0.020596
454.7188	0.020068
455.3803	0.021947
456.0419	0.019414
456.7036	0.020279
457.3654	0.019773
458.0274	0.022559
458.6894	0.019583
459.3516	0.020702
460.0138	0.019730
460.6762	0.021082
461.3387	0.018992
462.0013	0.015445
462.6640	0.016838
463.3268	0.015509
463.9897	0.018021
464.6528	0.017387
465.3159	0.017282
465.9792	0.017240
466.6425	0.014601
467.3060	0.014200
467.9696	0.012743
468.6333	0.011603
469.2970	0.013313
469.9610	0.011477
470.6250	0.011878
471.2891	0.009619
471.9533	0.010717
472.6177	0.010442
473.2821	0.011139
473.9467	0.010358
474.6113	0.009471
475.2761	0.010337
475.9410	0.009091
476.6060	0.009703
477.2711	0.009028
477.9363	0.010421
478.6016	0.008162
479.2670	0.007508
479.9325	0.007297
480.5982	0.008205
481.2639	0.006938
481.9298	0.008331
482.5957	0.005545
483.2618	0.005376
483.9280	0.007402
484.5943	0.008268
485.2606	0.007782
485.9271	0.019477
486.5937	0.014348
487.2605	0.011413
487.9273	0.006832
488.5942	0.006305
489.2612	0.004806
489.9284	0.004384
490.5956	0.004912
491.2630	0.004510
491.9304	0.004384
492.5980	0.005777
493.2657	0.004553
493.9334	0.003877
494.6013	0.003962
495.2693	0.002969
495.9374	0.003518
496.6056	0.005904
497.2739	0.003835
497.9423	0.004194
498.6109	0.004194
499.2795	0.004827
499.9482	0.004278
500.6171	0.004489
501.2860	0.003750
501.9551	0.003286
502.6242	0.002779
503.2935	0.004004
503.9628	0.002146
504.6323	0.003265
505.3019	0.002083
505.9716	0.001597
506.6414	0.004088
507.3113	0.002885
507.9813	0.002463
508.6514	0.002611
509.3216	0.002568
509.9919	0.003455
510.6623	0.002653
511.3329	0.002695
512.0035	0.003940
512.6742	0.002822
513.3451	0.002611
514.0160	0.003244
514.6871	0.003434
515.3582	0.002843
516.0295	0.003349
516.7008	0.002716
517.3723	0.002526
518.0439	0.002589
518.7155	0.003687
519.3873	0.003413
520.0592	0.003054
520.7312	0.002716
521.4033	0.003898
522.0755	0.002019
522.7478	0.003223
523.4202	0.003666
524.0927	0.003814
524.7653	0.001851
525.4380	0.003835
526.1108	0.003096
526.7837	0.004637
527.4568	0.002779
528.1299	0.004553
528.8031	0.003835
529.4765	0.005608
530.1499	0.004447
530.8234	0.005693
531.4971	0.005503
532.1708	0.005207
532.8447	0.004637
533.5186	0.004468
534.1927	0.006643
534.8668	0.008247
535.5411	0.008162
536.2155	0.006600
536.8899	0.007065
537.5645	0.007508
538.2392	0.009598
538.9139	0.009049
539.5888	0.010506
540.2638	0.011519
540.9389	0.011751
541.6140	0.012131
542.2893	0.013187
542.9647	0.014179
543.6402	0.015044
544.3158	0.013566
544.9915	0.015656
545.6673	0.015487
546.3432	0.014495
547.0192	0.014326
547.6953	0.016395
548.3715	0.020343
549.0478	0.020089
549.7242	0.019013
550.4007	0.018443
551.0773	0.018696
551.7540	0.016902
552.4308	0.023847
553.1077	0.022137
553.7847	0.024860
554.4618	0.021757
555.1390	0.023509
555.8163	0.025536
556.4937	0.027267
557.1712	0.025156
557.8488	0.027436
558.5266	0.025599
559.2044	0.024818
559.8823	0.027013
560.5603	0.031657
561.2384	0.033262
561.9166	0.032312
562.5949	0.033388
563.2733	0.034613
563.9519	0.036956
564.6305	0.040291
565.3092	0.040671
565.9880	0.040587
566.6669	0.044049
567.3459	0.051332
568.0250	0.057263
568.7043	0.067734
569.3836	0.077867
570.0630	0.103198
570.7425	0.106343
571.4221	0.128973
572.1018	0.139781
572.7816	0.121289
573.4615	0.143095
574.1415	0.160490
574.8216	0.171403
575.5018	0.177420
576.1821	0.162052
576.8626	0.186898
577.5431	0.199606
578.2237	0.247103
578.9044	0.205791
579.5851	0.204018
580.2660	0.214362
580.9470	0.205876
581.6281	0.324385
582.3093	0.304057
582.9906	0.240559
583.6720	0.202245
584.3535	0.203026
585.0351	0.227281
585.7167	0.239292
586.3985	0.208958
587.0804	0.215248
587.7624	0.228927
588.4445	0.203005
589.1266	0.179298
589.8089	0.166696
590.4913	0.151940
591.1737	0.132266
591.8563	0.134335
592.5389	0.153524
593.2217	0.208725
593.9046	0.196271
594.5875	0.174929
595.2705	0.198550
595.9537	0.174633
596.6369	0.146811
597.3203	0.155740
598.0037	0.148098
598.6872	0.159223
599.3709	0.186497
600.0546	0.183816
600.7384	0.183985
601.4223	0.184681
602.1064	0.168469
602.7905	0.173303
603.4747	0.194645
604.1590	0.176512
604.8434	0.158463
605.5279	0.166590
606.2125	0.175773
606.8972	0.157640
607.5819	0.161292
608.2668	0.152574
608.9518	0.146220
609.6369	0.136193
610.3220	0.154495
611.0073	0.141998
611.6927	0.141174
612.3781	0.132878
613.0637	0.132435
613.7493	0.128150
614.4351	0.129290
615.1209	0.126229
615.8068	0.133047
616.4929	0.117173
617.1790	0.109995
617.8652	0.111368
618.5515	0.101108
619.2379	0.091588
619.9244	0.093931
620.6110	0.095620
621.2977	0.075354
621.9845	0.079471
622.6714	0.083841
623.3584	0.089139
624.0454	0.089012
624.7326	0.090152
625.4199	0.085107
626.1072	0.078964
626.7947	0.071892
627.4822	0.069613
628.1698	0.064525
628.8576	0.059058
629.5454	0.066277
630.2333	0.062900
630.9213	0.056989
631.6094	0.054604
632.2976	0.053506
632.9859	0.047426
633.6743	0.045611
634.3628	0.043310
635.0514	0.042170
635.7400	0.041516
636.4288	0.044471
637.1177	0.043964
637.8066	0.041283
638.4957	0.043690
639.1848	0.041769
639.8740	0.039668
640.5633	0.035423
641.2528	0.032870
641.9423	0.031985
642.6319	0.031555
643.3216	0.028754
644.0113	0.028736
644.7012	0.026174
645.3912	0.027294
646.0812	0.026314
646.7714	0.024505
647.4616	0.022876
648.1520	0.029878
648.8424	0.034842
649.5329	0.032672
650.2236	0.029220
650.9143	0.029804
651.6051	0.030009
652.2960	0.030625
652.9870	0.034410
653.6780	0.033743
654.3692	0.034407
655.0605	0.066917
655.7518	0.966630
656.4433	1.000000
657.1348	0.869676
657.8264	0.536576
658.5181	0.415880
659.2099	0.336638
659.9018	0.100077
660.5938	0.031470
661.2859	0.025042
661.9781	0.023240
662.6704	0.023264
663.3627	0.021126
664.0552	0.022141
664.7477	0.022623
665.4403	0.025394
666.1330	0.022945
666.8259	0.019722
667.5188	0.021926
668.2117	0.022022
668.9048	0.023995
669.5980	0.019709
670.2913	0.020659
670.9846	0.021461
671.6781	0.028343
672.3716	0.032692
673.0652	0.033557
673.7589	0.028892
674.4527	0.027942
675.1466	0.026042
675.8406	0.026929
676.5347	0.025219
677.2288	0.024227
677.9231	0.028090
678.6174	0.030306
679.3119	0.030982
680.0064	0.035288
680.7010	0.036069
681.3957	0.035141
682.0905	0.033135
682.7854	0.028343
683.4803	0.031784
684.1754	0.032439
684.8705	0.037948
685.5658	0.045970
686.2611	0.044471
686.9565	0.041642
687.6520	0.042951
688.3476	0.038835
689.0433	0.039742
689.7390	0.036998
690.4349	0.032882
691.1308	0.036470
691.8269	0.037821
692.5230	0.037716
693.2192	0.039215
693.9155	0.036196
694.6119	0.033114
695.3083	0.036682
696.0049	0.029800
696.7016	0.034908
697.3983	0.039616
698.0951	0.038054
698.7920	0.038180
699.4890	0.033452
700.1861	0.030306
700.8833	0.030053
701.5806	0.028449
702.2779	0.029948
702.9753	0.029314
703.6729	0.029019
704.3705	0.027267
705.0682	0.023995
705.7660	0.024586
706.4638	0.029230
707.1618	0.037399
707.8599	0.039236
708.5580	0.036470
709.2562	0.034127
709.9545	0.034549
710.6529	0.034929
711.3514	0.031362
712.0500	0.029610
712.7486	0.030285
713.4474	0.030792
714.1462	0.035858
714.8451	0.034444
715.5441	0.037526
716.2432	0.028850
716.9424	0.029462
717.6416	0.025029
718.3410	0.032016
719.0404	0.027583
719.7399	0.028765
720.4395	0.028913
721.1392	0.028639
721.8390	0.028723
722.5388	0.027626
723.2388	0.026697
723.9388	0.028385
724.6389	0.028850
725.3391	0.032249
726.0394	0.035204
726.7398	0.032185
727.4403	0.033177
728.1408	0.033494
728.8414	0.034001
729.5421	0.036829
730.2429	0.037927
730.9438	0.042634
731.6448	0.043669
732.3458	0.040207
733.0470	0.043268
733.7482	0.045315
734.4495	0.052683
735.1509	0.047258
735.8524	0.045991
736.5539	0.047785
737.2556	0.051036
737.9573	0.043880
738.6591	0.041980
739.3610	0.045379
740.0630	0.044935
740.7651	0.038413
741.4672	0.033768
742.1695	0.034972
742.8718	0.035647
743.5742	0.031383
744.2767	0.028449
744.9792	0.030961
745.6819	0.030116
746.3846	0.029019
747.0874	0.030201
747.7903	0.030708
748.4933	0.029631
749.1964	0.030771
749.8995	0.037188
750.6028	0.042128
751.3061	0.038814
752.0095	0.039975
752.7130	0.036449
753.4166	0.037505
754.1202	0.039806
754.8239	0.038856
755.5278	0.042212
756.2317	0.045505
756.9356	0.051859
757.6397	0.058467
758.3438	0.057833
759.0481	0.052640
759.7524	0.061507
760.4568	0.063026
761.1613	0.061823
761.8658	0.051036
762.5705	0.050128
763.2752	0.049390
763.9800	0.050952
764.6849	0.057855
765.3898	0.058741
766.0949	0.048735
766.8000	0.041368
767.5052	0.037589
768.2105	0.043563
768.9159	0.049812
769.6214	0.047680
770.3269	0.044387
771.0325	0.047574
771.7382	0.046688
772.4440	0.040946
773.1499	0.040376
773.8558	0.036386
774.5618	0.032692
775.2679	0.032460
775.9741	0.028153
776.6804	0.025747
777.3868	0.026760
778.0932	0.024375
778.7997	0.028195
779.5063	0.031657
780.2130	0.029188
780.9197	0.030032
781.6265	0.034444
782.3335	0.036048
783.0405	0.032354
783.7475	0.034655
784.4547	0.031256
785.1619	0.029715
785.8692	0.030053
786.5766	0.028259
787.2841	0.027837
787.9917	0.030855
788.6993	0.030180
789.4070	0.030306
790.1148	0.024121
790.8227	0.026042
791.5306	0.024691
792.2387	0.021905
792.9468	0.021335
793.6550	0.024501
794.3632	0.031636
795.0716	0.031235
795.7800	0.030180
796.4885	0.024628
797.1971	0.023192
797.9058	0.024248
798.6145	0.023171
799.3233	0.025156
800.0322	0.021504
800.7412	0.021609
801.4503	0.018548
802.1594	0.017788
802.8686	0.016501
803.5779	0.020385
804.2873	0.017430
804.9968	0.016902
805.7063	0.018021
806.4159	0.023446
807.1256	0.023235
807.8354	0.023382
808.5452	0.021504
809.2551	0.023594
809.9651	0.021588
810.6752	0.018844
811.3853	0.018126
812.0956	0.016290
812.8059	0.012659
813.5163	0.015509
814.2267	0.018992
814.9373	0.018042
815.6479	0.015171
816.3586	0.013376
817.0694	0.013820
817.7802	0.015593
818.4912	0.013566
819.2022	0.012131
819.9133	0.012068
820.6244	0.016163
821.3357	0.015319
822.0470	0.013292
822.7584	0.014305
823.4698	0.010780
824.1814	0.010653
824.8930	0.011456
825.6047	0.013756
826.3165	0.012997
827.0283	0.011645
827.7402	0.013503
828.4522	0.012047
829.1643	0.012638
829.8765	0.011477
830.5887	0.008458
831.3010	0.009703
832.0134	0.007529
832.7259	0.008986
833.4384	0.009408
834.1510	0.010062
834.8637	0.010928
835.5765	0.009598
836.2893	0.008753
837.0022	0.008289
837.7152	0.006959
838.4283	0.006157
839.1414	0.007339
839.8546	0.008669
840.5679	0.005777
841.2813	0.007318
841.9947	0.006938
842.7082	0.005123
843.4218	0.004700
844.1355	0.005017
844.8492	0.005334
845.5631	0.005418
846.2770	0.004827
846.9909	0.005756
847.7050	0.004827
848.4191	0.004912
849.1333	0.005376
849.8475	0.004342
850.5619	0.005798
851.2763	0.005207
851.9908	0.005249
852.7053	0.007339
853.4200	0.013799
854.1347	0.014896
854.8495	0.013419
855.5643	0.013250
856.2792	0.013081
856.9942	0.010358
857.7093	0.009197
858.4245	0.009028
859.1397	0.008648
859.8550	0.008162
860.5704	0.008205
861.2858	0.007128
862.0013	0.005439
862.7169	0.004848
863.4326	0.006263
864.1483	0.006579
864.8642	0.005819
865.5800	0.004595
866.2960	0.005418
867.0120	0.005629
867.7281	0.004912
868.4443	0.006558
869.1606	0.004616
869.8769	0.004954
870.5933	0.004194
871.3097	0.006030
872.0263	0.005629
872.7429	0.003772
873.4596	0.004996
874.1763	0.006938
874.8932	0.005123
875.6101	0.006241
876.3270	0.004109
877.0441	0.005144
877.7612	0.005693
878.4784	0.006917
879.1957	0.007149
879.9130	0.007825
880.6304	0.009112
881.3479	0.006368
882.0654	0.006178
882.7831	0.005967
883.5007	0.005925
884.2185	0.005144
884.9363	0.007804
885.6542	0.005883
886.3722	0.008120
887.0903	0.005650
887.8084	0.006643
888.5266	0.005059
889.2448	0.005946
889.9632	0.004088
890.6816	0.004679
891.4001	0.003708
892.1186	0.003708
892.8372	0.003434
893.5559	0.005249
894.2747	0.004700
894.9935	0.004088
895.7124	0.004700
896.4314	0.003560
897.1504	0.002758
897.8695	0.005861
898.5887	0.005397
899.3079	0.005017
900.0272	0.004363
900.7466	0.005460
901.4661	0.004785
902.1856	0.004785
902.9052	0.005123
903.6249	0.004827
904.3446	0.004890
905.0644	0.004722
905.7843	0.004215
906.5043	0.005988
907.2243	0.004785
907.9444	0.003371
908.6645	0.003455
909.3847	0.003075
910.1050	0.005207
910.8254	0.004299
911.5458	0.004574
912.2663	0.004130
912.9869	0.003012
913.7075	0.004215
914.4283	0.001618
915.1490	0.002252
915.8699	0.003413
916.5908	0.003434
917.3118	0.004215
918.0328	0.004152
918.7539	0.004426
919.4751	0.004173
920.1964	0.004320
920.9177	0.003054
921.6391	0.002695
922.3606	0.004637
923.0821	0.001597
923.8037	0.003265
924.5254	0.003856
925.2471	0.003075
925.9689	0.003560
926.6908	0.002378
927.4127	0.001745
928.1347	0.003138
928.8568	0.002463
929.5789	0.002231
930.3011	0.002062
931.0234	0.002505
931.7457	0.002611
932.4681	0.003054
933.1906	0.003835
933.9131	0.002716
934.6358	0.001133
935.3584	0.003033
936.0812	0.001682
936.8040	0.001534
937.5269	0.000816
938.2498	0.000943
938.9728	0.001787
939.6959	0.001703
940.4190	0.001323
941.1422	0.001471
941.8655	0.000099
942.5889	0.000563
943.3123	0.000563
944.0357	0.000394
944.7593	0.001935
945.4829	0.000563
946.2066	-0.000260
946.9303	0.001070
947.6541	0.001217
948.3780	0.001618
949.1019	0.001935
949.8259	0.002104
950.5500	0.001618
951.2741	0.000120
951.9983	0.000795
952.7226	0.001112
953.4469	0.001407
954.1713	0.002146
954.8958	0.001196
955.6203	0.000521
956.3449	0.001175
957.0696	0.000246
957.7943	0.000943
958.5191	0.000225
959.2439	0.000521
959.9688	0.001027
960.6938	-0.000028
961.4189	0.002357
962.1440	0.002294
962.8692	0.000922
963.5944	0.000858
964.3197	-0.000535
965.0451	0.000605
965.7705	0.000056
966.4960	0.002357
967.2216	0.000690
967.9472	0.000816
968.6729	0.000816
969.3987	-0.000028
970.1245	-0.000070
970.8504	0.001450
971.5763	0.000099
972.3023	0.001133
973.0284	-0.000049
973.7545	0.000099
974.4807	0.000732
975.2070	0.001851
975.9333	-0.000851
976.6597	0.001766
977.3862	0.000310
978.1127	0.000858
978.8393	0.000204
979.5659	-0.000556
980.2926	0.000647
981.0194	0.000668
981.7462	0.001175
982.4731	0.000415
983.2001	0.001154
983.9271	0.000436
984.6542	0.001091
985.3814	0.000584
986.1086	0.000647
986.8358	0.000795
987.5632	-0.000091
988.2906	0.000753
989.0180	0.000331
989.7456	0.000711
990.4732	-0.000767
991.2008	0.000837
991.9285	0.000774
992.6563	0.000014
993.3841	-0.000661
994.1120	-0.000260
994.8400	0.000563
995.5680	0.001787
996.2961	0.000331
997.0242	0.001703
997.7524	0.000225
998.4807	0.001260
999.2090	-0.001400
999.9374	0.000310
1000.67	-0.000070
1001.39	0.000732
1002.12	0.000647
1002.85	-0.000788
1003.58	0.001428
1004.31	-0.001485
1005.04	0.001344
1005.77	0.000690
1006.5	0.000858
1007.22	0.000120
1007.95	-0.000387
1008.68	-0.000661
1009.41	0.001133
1010.14	0.000035
1010.87	0.000985
1011.6	0.001175
1012.33	0.001027
1013.06	-0.000619
1013.79	0.001386
1014.52	-0.000830
1015.25	-0.000007
1015.98	0.000141
1016.71	0.000711
1017.44	-0.000851
1018.17	0.001112
1018.9	-0.001337
1019.63	0.000542
1020.36	-0.000704
1021.09	-0.000746
1021.82	-0.000134
1022.55	-0.000619
1023.03	-0.000598