File: Auto_Polymerization/Spectra/spectrum_2025-06-19_10-21-45.txt
# Wavelength (nm)	Intensity (a.u.)
197.7802	0.000237
198.3922	0.000871
199.0044	0.001398
199.6168	0.000069
200.2292	0.000596
200.8418	-0.000206
201.4546	-0.000058
202.0674	0.001926
202.6805	-0.000776
203.2936	0.000069
203.9069	0.000111
204.5203	0.000364
205.1338	-0.000354
205.7475	0.000259
206.3614	-0.001451
206.9753	0.000829
207.5894	0.001208
208.2036	-0.000375
208.8180	0.000195
209.4325	-0.000776
210.0471	0.000216
210.6618	-0.000565
211.2767	-0.000269
211.8918	-0.001536
212.5069	-0.000142
213.1222	-0.001177
213.7376	0.000765
214.3532	-0.000586
214.9689	0.000596
215.5847	0.000322
216.2007	0.000237
216.8168	-0.000206
217.4330	-0.000121
218.0494	0.000449
218.6659	-0.000628
219.2825	-0.000058
219.8992	-0.000902
220.5161	-0.000670
221.1332	-0.000227
221.7503	-0.000375
222.3676	0.000871
222.9850	0.000301
223.6026	-0.000396
224.2203	0.000322
224.8381	0.000195
225.4561	0.000364
226.0742	0.000385
226.6924	-0.000544
227.3107	-0.000501
227.9292	-0.000501
228.5478	0.000195
229.1666	0.000512
229.7855	0.001652
230.4045	0.000723
231.0236	0.002391
231.6429	-0.000206
232.2623	0.000871
232.8818	-0.000121
233.5015	0.000090
234.1213	-0.000860
234.7413	0.000554
235.3613	-0.000121
235.9815	-0.000501
236.6018	0.000237
237.2223	0.000702
237.8429	-0.000459
238.4636	-0.000121
239.0845	0.000470
239.7055	0.000765
240.3266	-0.000417
240.9478	0.000090
241.5692	-0.000544
242.1907	-0.000100
242.8124	0.001652
243.4341	0.001483
244.0560	-0.000375
244.6781	0.000237
245.3002	-0.000607
245.9225	0.000364
246.5449	0.000153
247.1675	0.000174
247.7902	0.000216
248.4130	0.001082
249.0359	0.000786
249.6590	0.001673
250.2822	-0.000206
250.9056	-0.000227
251.5290	-0.000142
252.1526	0.000449
252.7763	0.001103
253.4002	0.000829
254.0242	-0.000016
254.6483	0.000301
255.2725	-0.000375
255.8969	0.001588
256.5214	0.000512
257.1460	0.000491
257.7708	0.000892
258.3957	-0.000079
259.0207	-0.000142
259.6459	-0.000459
260.2711	0.000364
260.8965	0.000786
261.5221	0.000174
262.1477	0.000660
262.7735	0.000237
263.3995	-0.000185
264.0255	-0.001050
264.6517	0.000997
265.2780	-0.000206
265.9044	0.000617
266.5310	0.001208
267.1577	-0.000945
267.7845	-0.000206
268.4114	-0.000227
269.0385	0.000427
269.6657	0.000047
270.2931	0.000259
270.9205	0.001335
271.5481	-0.000945
272.1758	0.000892
272.8037	-0.000712
273.4316	0.000132
274.0597	-0.001831
274.6880	0.000470
275.3163	-0.000290
275.9448	-0.000776
276.5734	-0.000649
277.2022	0.000364
277.8310	-0.001029
278.4600	0.000533
279.0891	-0.000776
279.7184	0.001208
280.3477	-0.000142
280.9772	0.000575
281.6069	0.002179
282.2366	-0.000649
282.8665	0.000069
283.4965	0.000554
284.1266	-0.000438
284.7569	0.000364
285.3873	0.000322
286.0178	-0.000438
286.6484	0.000850
287.2792	0.000153
287.9101	0.000090
288.5411	0.000005
289.1723	0.000449
289.8035	0.000702
290.4349	-0.001303
291.0665	0.001631
291.6981	0.000512
292.3299	0.000786
292.9618	-0.002148
293.5938	0.001504
294.2260	0.000090
294.8582	0.000786
295.4906	0.000639
296.1232	0.000976
296.7558	0.000069
297.3886	-0.000185
298.0215	-0.000227
298.6545	0.001462
299.2877	0.000406
299.9210	0.000660
300.5544	-0.000544
301.1879	0.000934
301.8215	0.001082
302.4553	0.001124
303.0892	0.000491
303.7233	-0.000544
304.3574	-0.000544
304.9917	0.001525
305.6261	-0.000966
306.2606	0.000470
306.8953	-0.000206
307.5301	0.000617
308.1650	0.000575
308.8000	0.000111
309.4351	0.000385
310.0704	-0.000586
310.7058	-0.000227
311.3413	0.000195
311.9770	-0.000881
312.6127	0.000259
313.2486	-0.000100
313.8846	0.000449
314.5208	0.000364
315.1570	-0.000100
315.7934	-0.000164
316.4299	0.000069
317.0666	0.000132
317.7033	0.000786
318.3402	0.000554
318.9772	-0.001050
319.6143	0.001082
320.2516	0.000343
320.8890	0.001462
321.5265	0.000765
322.1641	0.001166
322.8018	0.000850
323.4397	-0.000164
324.0777	-0.000586
324.7158	-0.000016
325.3540	0.000596
325.9924	-0.001346
326.6308	0.000660
327.2694	-0.000375
327.9082	-0.000480
328.5470	0.000259
329.1860	-0.000100
329.8251	0.001018
330.4643	0.000681
331.1036	0.000364
331.7431	0.000807
332.3826	-0.001156
333.0223	-0.000269
333.6622	0.000639
334.3021	-0.000354
334.9422	-0.000459
335.5823	0.001715
336.2227	-0.000565
336.8631	0.000807
337.5036	0.000195
338.1443	-0.000269
338.7851	-0.000332
339.4260	-0.000966
340.0670	0.000005
340.7082	0.000427
341.3495	0.000132
341.9909	0.000280
342.6324	-0.000628
343.2740	-0.000586
343.9158	0.000850
344.5577	0.001778
345.1997	0.000702
345.8418	0.000934
346.4840	-0.000649
347.1264	0.000639
347.7689	-0.000375
348.4115	-0.000290
349.0542	-0.000945
349.6971	0.000617
350.3400	-0.000586
350.9831	-0.000037
351.6263	0.000111
352.2696	0.000280
352.9131	0.000005
353.5566	0.001968
354.2003	0.000280
354.8441	0.000280
355.4881	-0.001156
356.1321	0.000449
356.7763	0.001040
357.4206	0.000512
358.0650	0.000026
358.7095	-0.000121
359.3541	0.001082
359.9989	0.002116
360.6438	-0.000966
361.2888	0.000554
361.9339	0.000026
362.5791	0.000026
363.2245	0.000786
363.8699	0.000617
364.5155	0.000174
365.1612	0.000449
365.8071	0.000026
366.4530	-0.000142
367.0991	0.000153
367.7453	0.000702
368.3916	-0.000480
369.0380	0.000596
369.6845	-0.000248
370.3312	0.000301
370.9780	0.001652
371.6249	0.000005
372.2719	-0.000290
372.9190	-0.000037
373.5663	-0.000037
374.2136	0.000765
374.8611	0.000427
375.5087	-0.000016
376.1564	-0.000501
376.8043	-0.000079
377.4522	0.000723
378.1003	-0.000987
378.7485	0.000934
379.3968	0.000301
380.0452	-0.000670
380.6938	-0.000142
381.3424	0.000364
381.9912	0.001821
382.6401	0.000026
383.2891	0.001145
383.9382	0.002264
384.5875	0.000406
385.2368	0.000829
385.8863	0.002707
386.5359	-0.000142
387.1856	0.000829
387.8355	0.001673
388.4854	0.004079
389.1355	0.001251
389.7856	0.002454
390.4359	0.002939
391.0863	0.005536
391.7369	0.005261
392.3875	0.005304
393.0383	0.006443
393.6891	0.008005
394.3401	0.007583
394.9912	0.010433
395.6425	0.010201
396.2938	0.012058
396.9453	0.011531
397.5968	0.014296
398.2485	0.015436
398.9003	0.017926
399.5522	0.015309
400.2043	0.017103
400.8564	0.017568
401.5087	0.018644
402.1610	0.019911
402.8135	0.019911
403.4661	0.019953
404.1189	0.023583
404.7717	0.024217
405.4246	0.026391
406.0777	0.024238
406.7309	0.025547
407.3842	0.026391
408.0376	0.023351
408.6911	0.026433
409.3448	0.026602
409.9985	0.028565
410.6524	0.026095
411.3064	0.026686
411.9605	0.027045
412.6147	0.029599
413.2690	0.029874
413.9234	0.028417
414.5780	0.029388
415.2326	0.027172
415.8874	0.027151
416.5423	0.029409
417.1973	0.027003
417.8524	0.026876
418.5077	0.031098
419.1630	0.028502
419.8185	0.029241
420.4741	0.032111
421.1298	0.032132
421.7856	0.037621
422.4415	0.035826
423.0975	0.036523
423.7536	0.032428
424.4099	0.032322
425.0663	0.032322
425.7228	0.031267
426.3793	0.029705
427.0361	0.031014
427.6929	0.033884
428.3498	0.033399
429.0068	0.030402
429.6640	0.033652
430.3213	0.036354
430.9787	0.035235
431.6362	0.032048
432.2938	0.029979
432.9515	0.028460
433.6093	0.031584
434.2673	0.031077
434.9253	0.029346
435.5835	0.030760
436.2418	0.031183
436.9001	0.029409
437.5586	0.032027
438.2173	0.030064
438.8760	0.029853
439.5348	0.029409
440.1938	0.028248
440.8528	0.032090
441.5120	0.034328
442.1713	0.034687
442.8307	0.033504
443.4902	0.034475
444.1498	0.032217
444.8095	0.030929
445.4694	0.030359
446.1293	0.030000
446.7894	0.029874
447.4496	0.027362
448.1098	0.028143
448.7702	0.026117
449.4307	0.028037
450.0914	0.025715
450.7521	0.027214
451.4129	0.024196
452.0739	0.025589
452.7349	0.023816
453.3961	0.022317
454.0574	0.022697
454.7188	0.022591
455.3803	0.020586
456.0419	0.023900
456.7036	0.021050
457.3654	0.019108
458.0274	0.019193
458.6894	0.021494
459.3516	0.022169
460.0138	0.019510
460.6762	0.017715
461.3387	0.017842
462.0013	0.016681
462.6640	0.017399
463.3268	0.016385
463.9897	0.015752
464.6528	0.020058
465.3159	0.017124
465.9792	0.018813
466.6425	0.014021
467.3060	0.013409
467.9696	0.012987
468.6333	0.012691
469.2970	0.011087
469.9610	0.011488
470.6250	0.010750
471.2891	0.011383
471.9533	0.009821
472.6177	0.011045
473.2821	0.009990
473.9467	0.009251
474.6113	0.008892
475.2761	0.010728
475.9410	0.007583
476.6060	0.010264
477.2711	0.007963
477.9363	0.006866
478.6016	0.008069
479.2670	0.008322
479.9325	0.007393
480.5982	0.007224
481.2639	0.007182
481.9298	0.006887
482.5957	0.004987
483.2618	0.007224
483.9280	0.006106
484.5943	0.007288
485.2606	0.007942
485.9271	0.021473
486.5937	0.013430
487.2605	0.011214
487.9273	0.006464
488.5942	0.004712
489.2612	0.005325
489.9284	0.004438
490.5956	0.005747
491.2630	0.004839
491.9304	0.004902
492.5980	0.004522
493.2657	0.005451
493.9334	0.003847
494.6013	0.003995
495.2693	0.004164
495.9374	0.003235
496.6056	0.004206
497.2739	0.002264
497.9423	0.003910
498.6109	0.003425
499.2795	0.004121
499.9482	0.004206
500.6171	0.004839
501.2860	0.003868
501.9551	0.002665
502.6242	0.003805
503.2935	0.002369
503.9628	0.002728
504.6323	0.003066
505.3019	0.002665
505.9716	0.003024
506.6414	0.003953
507.3113	0.003784
507.9813	0.001377
508.6514	0.002665
509.3216	0.003214
509.9919	0.004311
510.6623	0.003150
511.3329	0.003868
512.0035	0.002792
512.6742	0.002855
513.3451	0.004121
514.0160	0.002918
514.6871	0.002960
515.3582	0.003150
516.0295	0.000997
516.7008	0.003784
517.3723	0.003277
518.0439	0.002982
518.7155	0.003657
519.3873	0.002538
520.0592	0.003699
520.7312	0.002074
521.4033	0.003319
522.0755	0.001736
522.7478	0.003024
523.4202	0.003256
524.0927	0.002665
524.7653	0.003594
525.4380	0.003594
526.1108	0.002792
526.7837	0.003615
527.4568	0.004185
528.1299	0.002939
528.8031	0.004480
529.4765	0.005705
530.1499	0.004037
530.8234	0.004586
531.4971	0.004058
532.1708	0.004881
532.8447	0.005008
533.5186	0.008998
534.1927	0.007372
534.8668	0.008596
535.5411	0.007900
536.2155	0.009272
536.8899	0.006211
537.5645	0.008976
538.2392	0.009040
538.9139	0.008934
539.5888	0.009103
540.2638	0.010581
540.9389	0.009504
541.6140	0.010285
542.2893	0.011699
542.9647	0.013114
543.6402	0.013409
544.3158	0.013114
544.9915	0.015541
545.6673	0.017124
546.3432	0.015393
547.0192	0.015140
547.6953	0.017926
548.3715	0.019066
549.0478	0.019298
549.7242	0.018116
550.4007	0.017926
551.0773	0.018454
551.7540	0.018919
552.4308	0.021198
553.1077	0.021747
553.7847	0.023520
554.4618	0.022676
555.1390	0.022401
555.8163	0.025568
556.4937	0.027657
557.1712	0.027235
557.8488	0.028755
558.5266	0.025547
559.2044	0.024829
559.8823	0.026264
560.5603	0.031056
561.2384	0.034771
561.9166	0.033737
562.5949	0.034898
563.2733	0.035320
563.9519	0.037367
564.6305	0.040027
565.3092	0.041146
565.9880	0.042370
566.6669	0.041906
567.3459	0.050771
568.0250	0.056618
568.7043	0.067468
569.3836	0.080112
570.0630	0.101622
570.7425	0.104598
571.4221	0.127817
572.1018	0.138350
572.7816	0.121654
573.4615	0.141158
574.1415	0.161317
574.8216	0.175839
575.5018	0.178436
576.1821	0.161338
576.8626	0.182404
577.5431	0.195090
578.2237	0.239904
578.9044	0.207164
579.5851	0.201866
580.2660	0.212631
580.9470	0.207734
581.6281	0.319926
582.3093	0.308295
582.9906	0.243914
583.6720	0.198847
584.3535	0.200832
585.0351	0.231967
585.7167	0.240558
586.3985	0.209254
587.0804	0.215502
587.7624	0.231376
588.4445	0.204272
589.1266	0.181243
589.8089	0.168346
590.4913	0.153675
591.1737	0.135163
591.8563	0.133664
592.5389	0.156504
593.2217	0.205433
593.9046	0.195027
594.5875	0.175586
595.2705	0.200789
595.9537	0.177486
596.6369	0.146161
597.3203	0.152810
598.0037	0.148841
598.6872	0.159628
599.3709	0.184747
600.0546	0.184494
600.7384	0.182615
601.4223	0.190573
602.1064	0.165264
602.7905	0.174172
603.4747	0.188694
604.1590	0.173327
604.8434	0.160493
605.5279	0.166467
606.2125	0.175164
606.8972	0.155153
607.5819	0.160008
608.2668	0.153021
608.9518	0.143395
609.6369	0.136451
610.3220	0.152620
611.0073	0.138752
611.6927	0.139279
612.3781	0.132356
613.0637	0.134002
613.7493	0.130561
614.4351	0.130350
615.1209	0.126614
615.8068	0.132503
616.4929	0.117221
617.1790	0.109432
617.8652	0.112176
618.5515	0.101537
619.2379	0.090307
619.9244	0.094086
620.6110	0.098793
621.2977	0.076946
621.9845	0.081864
622.6714	0.087627
623.3584	0.089906
624.0454	0.086740
624.7326	0.089400
625.4199	0.082645
626.1072	0.080386
626.7947	0.069811
627.4822	0.069896
628.1698	0.066750
628.8576	0.057463
629.5454	0.062423
630.2333	0.059996
630.9213	0.056259
631.6094	0.053157
632.2976	0.053346
632.9859	0.044671
633.6743	0.046528
634.3628	0.041821
635.0514	0.042265
635.7400	0.042476
636.4288	0.047225
637.1177	0.045325
637.8066	0.039309
638.4957	0.044586
639.1848	0.041209
639.8740	0.038402
640.5633	0.038072
641.2528	0.036200
641.9423	0.031041
642.6319	0.030239
643.3216	0.031572
644.0113	0.028515
644.7012	0.025605
645.3912	0.026365
646.0812	0.024810
646.7714	0.026139
647.4616	0.025085
648.1520	0.029692
648.8424	0.033284
649.5329	0.032555
650.2236	0.032681
650.9143	0.029348
651.6051	0.030825
652.2960	0.031207
652.9870	0.031651
653.6780	0.030409
654.3692	0.035010
655.0605	0.064494
655.7518	0.964654
656.4433	1.000000
657.1348	0.885218
657.8264	0.538416
658.5181	0.415723
659.2099	0.333593
659.9018	0.099364
660.5938	0.031607
661.2859	0.024460
661.9781	0.024182
662.6704	0.020876
663.3627	0.021454
664.0552	0.021560
664.7477	0.023012
665.4403	0.022673
666.1330	0.022725
666.8259	0.020470
667.5188	0.022317
668.2117	0.019834
668.9048	0.021008
669.5980	0.020839
670.2913	0.021958
670.9846	0.021726
671.6781	0.027320
672.3716	0.033146
673.0652	0.033779
673.7589	0.029262
674.4527	0.027847
675.1466	0.026243
675.8406	0.027172
676.5347	0.024808
677.2288	0.023816
677.9231	0.028396
678.6174	0.029937
679.3119	0.031309
680.0064	0.033863
680.7010	0.033863
681.3957	0.035826
682.0905	0.033019
682.7854	0.032175
683.4803	0.030718
684.1754	0.034982
684.8705	0.038254
685.5658	0.044059
686.2611	0.044038
686.9565	0.044460
687.6520	0.044608
688.3476	0.039204
689.0433	0.036882
689.7390	0.038233
690.4349	0.035636
691.1308	0.037663
691.8269	0.037431
692.5230	0.038381
693.2192	0.040048
693.9155	0.038465
694.6119	0.032871
695.3083	0.033737
696.0049	0.030233
696.7016	0.033526
697.3983	0.039753
698.0951	0.038803
698.7920	0.036650
699.4890	0.035341
700.1861	0.029747
700.8833	0.032217
701.5806	0.029072
702.2779	0.029198
702.9753	0.030169
703.6729	0.029768
704.3705	0.028312
705.0682	0.023963
705.7660	0.024196
706.4638	0.031119
707.1618	0.035594
707.8599	0.039710
708.5580	0.037114
709.2562	0.032449
709.9545	0.033568
710.6529	0.035784
711.3514	0.031119
712.0500	0.028692
712.7486	0.030824
713.4474	0.031921
714.1462	0.033631
714.8451	0.033462
715.5441	0.033927
716.2432	0.032322
716.9424	0.027826
717.6416	0.026750
718.3410	0.030359
719.0404	0.030338
719.7399	0.028101
720.4395	0.028396
721.1392	0.029958
721.8390	0.029536
722.5388	0.027383
723.2388	0.028248
723.9388	0.027615
724.6389	0.024238
725.3391	0.031415
726.0394	0.032428
726.7398	0.032702
727.4403	0.032280
728.1408	0.033800
728.8414	0.034623
729.5421	0.036333
730.2429	0.036227
730.9438	0.045621
731.6448	0.042687
732.3458	0.040702
733.0470	0.045304
733.7482	0.045241
734.4495	0.051489
735.1509	0.046951
735.8524	0.048365
736.5539	0.048534
737.2556	0.049589
737.9573	0.042750
738.6591	0.041230
739.3610	0.049716
740.0630	0.043003
740.7651	0.040048
741.4672	0.034708
742.1695	0.033188
742.8718	0.036164
743.5742	0.029494
744.2767	0.030634
744.9792	0.029705
745.6819	0.028861
746.3846	0.028080
747.0874	0.028818
747.7903	0.032280
748.4933	0.028101
749.1964	0.030465
749.8995	0.036692
750.6028	0.039077
751.3061	0.038233
752.0095	0.040365
752.7130	0.037325
753.4166	0.038085
754.1202	0.041568
754.8239	0.040365
755.5278	0.041716
756.2317	0.044270
756.9356	0.051025
757.6397	0.057948
758.3438	0.056576
759.0481	0.055014
759.7524	0.060439
760.4568	0.061748
761.1613	0.061980
761.8658	0.052587
762.5705	0.048871
763.2752	0.049653
763.9800	0.050581
764.6849	0.056555
765.3898	0.057737
766.0949	0.049568
766.8000	0.040069
767.5052	0.038296
768.2105	0.042792
768.9159	0.050856
769.6214	0.048259
770.3269	0.043341
771.0325	0.047373
771.7382	0.046317
772.4440	0.042011
773.1499	0.038845
773.8558	0.038866
774.5618	0.031879
775.2679	0.031605
775.9741	0.026518
776.6804	0.025483
777.3868	0.024175
778.0932	0.025821
778.7997	0.028101
779.5063	0.032956
780.2130	0.029304
780.9197	0.029979
781.6265	0.035826
782.3335	0.035404
783.0405	0.034391
783.7475	0.035193
784.4547	0.029958
785.1619	0.029515
785.8692	0.029177
786.5766	0.027679
787.2841	0.029578
787.9917	0.028333
788.6993	0.031774
789.4070	0.030824
790.1148	0.026644
790.8227	0.025399
791.5306	0.023837
792.2387	0.021494
792.9468	0.023119
793.6550	0.021620
794.3632	0.032111
795.0716	0.033357
795.7800	0.030549
796.4885	0.023626
797.1971	0.023267
797.9058	0.023436
798.6145	0.021156
799.3233	0.021578
800.0322	0.020903
800.7412	0.019889
801.4503	0.017166
802.1594	0.018686
802.8686	0.017483
803.5779	0.017948
804.2873	0.017483
804.9968	0.017209
805.7063	0.016554
806.4159	0.023394
807.1256	0.023372
807.8354	0.023900
808.5452	0.022549
809.2551	0.020966
809.9651	0.019045
810.6752	0.019087
811.3853	0.018602
812.0956	0.017462
812.8059	0.014845
813.5163	0.016850
814.2267	0.018222
814.9373	0.017145
815.6479	0.017166
816.3586	0.014718
817.0694	0.015414
817.7802	0.016196
818.4912	0.012818
819.2022	0.012734
819.9133	0.011362
820.6244	0.016385
821.3357	0.015794
822.0470	0.013789
822.7584	0.012881
823.4698	0.011657
824.1814	0.013283
824.8930	0.011699
825.6047	0.013494
826.3165	0.012818
827.0283	0.013831
827.7402	0.013726
828.4522	0.013451
829.1643	0.013430
829.8765	0.010412
830.5887	0.010454
831.3010	0.008048
832.0134	0.007161
832.7259	0.008090
833.4384	0.007963
834.1510	0.008913
834.8637	0.010032
835.5765	0.009567
836.2893	0.006275
837.0022	0.007245
837.7152	0.006654
838.4283	0.006275
839.1414	0.006190
839.8546	0.006148
840.5679	0.006823
841.2813	0.009061
841.9947	0.005388
842.7082	0.005873
843.4218	0.005282
844.1355	0.006169
844.8492	0.006359
845.5631	0.006591
846.2770	0.006359
846.9909	0.006296
847.7050	0.006929
848.4191	0.004501
849.1333	0.003488
849.8475	0.004649
850.5619	0.005430
851.2763	0.004079
851.9908	0.005747
852.7053	0.008681
853.4200	0.013916
854.1347	0.013599
854.8495	0.013789
855.5643	0.013093
856.2792	0.011446
856.9942	0.011425
857.7093	0.009335
858.4245	0.010517
859.1397	0.008301
859.8550	0.008808
860.5704	0.007499
861.2858	0.008259
862.0013	0.006992
862.7169	0.005472
863.4326	0.007710
864.1483	0.007710
864.8642	0.005346
865.5800	0.004480
866.2960	0.004164
867.0120	0.005916
867.7281	0.004691
868.4443	0.006443
869.1606	0.005071
869.8769	0.005092
870.5933	0.005177
871.3097	0.006844
872.0263	0.004586
872.7429	0.005261
873.4596	0.005705
874.1763	0.005768
874.8932	0.003108
875.6101	0.007034
876.3270	0.004839
877.0441	0.004248
877.7612	0.005177
878.4784	0.007457
879.1957	0.007393
879.9130	0.006887
880.6304	0.007647
881.3479	0.006950
882.0654	0.006317
882.7831	0.005515
883.5007	0.007372
884.2185	0.005789
884.9363	0.006823
885.6542	0.005451
886.3722	0.006992
887.0903	0.006359
887.8084	0.005578
888.5266	0.003636
889.2448	0.006169
889.9632	0.003699
890.6816	0.004670
891.4001	0.004818
892.1186	0.006676
892.8372	0.006106
893.5559	0.003319
894.2747	0.004649
894.9935	0.004058
895.7124	0.006021
896.4314	0.005662
897.1504	0.004755
897.8695	0.005367
898.5887	0.004459
899.3079	0.004902
900.0272	0.004417
900.7466	0.005958
901.4661	0.004860
902.1856	0.005261
902.9052	0.003974
903.6249	0.003763
904.3446	0.005578
905.0644	0.006021
905.7843	0.004881
906.5043	0.005219
907.2243	0.004396
907.9444	0.005536
908.6645	0.003720
909.3847	0.002770
910.1050	0.002644
910.8254	0.002475
911.5458	0.003235
912.2663	0.004902
912.9869	0.003573
913.7075	0.004565
914.4283	0.002496
915.1490	0.003108
915.8699	0.003763
916.5908	0.005705
917.3118	0.004079
918.0328	0.004396
918.7539	0.003530
919.4751	0.004966
920.1964	0.003720
920.9177	0.005662
921.6391	0.002285
922.3606	0.004290
923.0821	0.003277
923.8037	0.003847
924.5254	0.001778
925.2471	0.002285
925.9689	0.002644
926.6908	0.002116
927.4127	0.002834
928.1347	0.003699
928.8568	0.002074
929.5789	0.000111
930.3011	0.002412
931.0234	0.002918
931.7457	0.002855
932.4681	0.003362
933.1906	0.001736
933.9131	0.003467
934.6358	0.002665
935.3584	0.001968
936.0812	0.003150
936.8040	0.003362
937.5269	0.001800
938.2498	0.000744
938.9728	0.001420
939.6959	0.001673
940.4190	0.001082
941.1422	0.000533
941.8655	0.000723
942.5889	0.001335
943.3123	0.002369
944.0357	0.001441
944.7593	0.001863
945.4829	0.001821
946.2066	0.001208
946.9303	0.001018
947.6541	0.000047
948.3780	0.001124
949.1019	0.002137
949.8259	0.001398
950.5500	0.001293
951.2741	0.001715
951.9983	0.002876
952.7226	0.001420
953.4469	0.000617
954.1713	0.001462
954.8958	0.001483
955.6203	0.001018
956.3449	0.001420
957.0696	0.000047
957.7943	0.000174
958.5191	-0.000396
959.2439	0.001821
959.9688	-0.000586
960.6938	0.000005
961.4189	0.000807
962.1440	0.000786
962.8692	0.001905
963.5944	0.001187
964.3197	0.000470
965.0451	-0.000079
965.7705	0.001293
966.4960	0.000153
967.2216	0.000449
967.9472	0.001821
968.6729	-0.000586
969.3987	0.001082
970.1245	0.001166
970.8504	0.000195
971.5763	0.002201
972.3023	0.001757
973.0284	0.001420
973.7545	0.000470
974.4807	0.000681
975.2070	0.001800
975.9333	-0.000522
976.6597	-0.000269
977.3862	0.000575
978.1127	0.001757
978.8393	0.001251
979.5659	0.000280
980.2926	0.000871
981.0194	0.001588
981.7462	-0.000354
982.4731	0.000744
983.2001	-0.000058
983.9271	-0.000248
984.6542	0.001208
985.3814	-0.000691
986.1086	0.000026
986.8358	-0.000522
987.5632	-0.000776
988.2906	0.000195
989.0180	0.000005
989.7456	0.000639
990.4732	-0.001726
991.2008	0.000639
991.9285	-0.000269
992.6563	0.001926
993.3841	-0.000818
994.1120	0.001926
994.8400	0.000216
995.5680	0.000322
996.2961	0.001715
997.0242	0.001546
997.7524	0.000449
998.4807	0.000639
999.2090	0.000026
999.9374	-0.000079
1000.67	-0.000586
1001.39	0.000026
1002.12	0.000786
1002.85	-0.000755
1003.58	0.001103
1004.31	-0.000839
1005.04	0.000026
1005.77	0.001377
1006.5	0.000385
1007.22	0.001208
1007.95	0.000237
1008.68	0.001483
1009.41	0.001483
1010.14	0.000301
1010.87	-0.001367
1011.6	0.000005
1012.33	0.000343
1013.06	-0.000164
1013.79	0.000892
1014.52	0.000660
1015.25	-0.000818
1015.98	0.000047
1016.71	0.000681
1017.44	0.000596
1018.17	-0.000501
1018.9	-0.000776
1019.63	-0.000649
1020.36	0.000047
1021.09	0.000449
1021.82	-0.000016
1022.55	-0.000079
1023.03	0.000174