File: Auto_Polymerization/Spectra/spectrum_2025-06-19_12-24-52.txt
# Wavelength (nm)	Intensity (a.u.)
197.7802	0.000862
198.3922	-0.000574
199.0044	0.000946
199.6168	-0.001144
200.2292	0.000904
200.8418	0.001833
201.4546	0.000968
202.0674	-0.000067
202.6805	0.001073
203.2936	0.000440
203.9069	0.001939
204.5203	0.000039
205.1338	-0.000405
205.7475	0.000524
206.3614	0.000398
206.9753	-0.000004
207.5894	0.000545
208.2036	0.000208
208.8180	0.000693
209.4325	-0.000088
210.0471	0.000292
210.6618	-0.000088
211.2767	0.002065
211.8918	0.000545
212.5069	0.002108
213.1222	0.000946
213.7376	0.000355
214.3532	0.000820
214.9689	0.000461
215.5847	-0.001165
216.2007	0.001094
216.8168	0.000102
217.4330	-0.001017
218.0494	0.000419
218.6659	0.001115
219.2825	-0.000679
219.8992	0.000545
220.5161	0.001770
221.1332	0.000461
221.7503	-0.001017
222.3676	0.001622
222.9850	-0.000130
223.6026	0.000799
224.2203	0.001242
224.8381	-0.000552
225.4561	0.000398
226.0742	0.001474
226.6924	0.000925
227.3107	0.000018
227.9292	0.000313
228.5478	-0.000489
229.1666	0.000672
229.7855	0.001305
230.4045	-0.000215
231.0236	0.002234
231.6429	0.001179
232.2623	-0.000215
232.8818	-0.000616
233.5015	0.000588
234.1213	0.001305
234.7413	0.000250
235.3613	0.001200
235.9815	0.000756
236.6018	0.000334
237.2223	0.000440
237.8429	-0.000257
238.4636	0.000778
239.0845	0.000292
239.7055	0.000946
240.3266	0.000482
240.9478	0.000355
241.5692	0.000778
242.1907	0.001622
242.8124	-0.001101
243.4341	0.000672
244.0560	0.001115
244.6781	0.001474
245.3002	0.000376
245.9225	-0.000004
246.5449	0.000968
247.1675	0.001516
247.7902	0.000566
248.4130	0.000334
249.0359	0.000440
249.6590	-0.000742
250.2822	-0.000764
250.9056	-0.000025
251.5290	-0.000426
252.1526	0.000630
252.7763	0.000588
253.4002	0.000946
254.0242	-0.000637
254.6483	-0.000215
255.2725	0.000081
255.8969	-0.000215
256.5214	0.001136
257.1460	0.000018
257.7708	-0.000236
258.3957	0.000693
259.0207	0.000271
259.6459	-0.000109
260.2711	0.001179
260.8965	0.000925
261.5221	-0.001144
262.1477	-0.000595
262.7735	0.000081
263.3995	0.001242
264.0255	0.000271
264.6517	-0.000827
265.2780	-0.000447
265.9044	0.001094
266.5310	0.000123
267.1577	-0.000046
267.7845	0.001326
268.4114	-0.001692
269.0385	-0.000637
269.6657	0.000756
270.2931	0.000545
270.9205	0.001812
271.5481	0.000060
272.1758	0.000060
272.8037	0.000799
273.4316	0.000946
274.0597	0.000630
274.6880	-0.000426
275.3163	0.000313
275.9448	0.001200
276.5734	0.000968
277.2022	0.001348
277.8310	0.000503
278.4600	0.000123
279.0891	0.000271
279.7184	-0.000046
280.3477	0.000968
280.9772	0.000588
281.6069	0.000820
282.2366	0.001369
282.8665	-0.000299
283.4965	0.001538
284.1266	0.001305
284.7569	-0.001038
285.3873	0.000989
286.0178	0.001812
286.6484	-0.000848
287.2792	0.000419
287.9101	0.001516
288.5411	0.000968
289.1723	0.001538
289.8035	0.000461
290.4349	0.000651
291.0665	0.000735
291.6981	0.000229
292.3299	0.000862
292.9618	0.001643
293.5938	0.000799
294.2260	0.000946
294.8582	0.000883
295.4906	-0.000468
296.1232	0.000060
296.7558	0.001200
297.3886	-0.001249
298.0215	-0.000151
298.6545	0.000440
299.2877	0.001348
299.9210	-0.000257
300.5544	-0.000531
301.1879	0.000524
301.8215	0.000588
302.4553	0.000968
303.0892	-0.000215
303.7233	0.000355
304.3574	-0.000151
304.9917	0.000503
305.6261	0.000566
306.2606	0.000566
306.8953	0.000545
307.5301	0.001136
308.1650	-0.000025
308.8000	0.000799
309.4351	0.000735
310.0704	0.000292
310.7058	-0.000046
311.3413	0.000989
311.9770	0.000925
312.6127	0.000503
313.2486	0.000355
313.8846	0.001348
314.5208	0.000630
315.1570	0.000081
315.7934	0.000440
316.4299	0.001052
317.0666	0.000545
317.7033	0.000883
318.3402	0.000165
318.9772	0.001284
319.6143	0.000566
320.2516	0.000989
320.8890	0.000714
321.5265	-0.001101
322.1641	-0.000721
322.8018	0.000883
323.4397	-0.001059
324.0777	0.000229
324.7158	0.001326
325.3540	0.001960
325.9924	0.000524
326.6308	0.001622
327.2694	0.000799
327.9082	0.000778
328.5470	-0.000320
329.1860	0.000419
329.8251	0.000165
330.4643	0.001326
331.1036	-0.000341
331.7431	0.000968
332.3826	0.000630
333.0223	0.001242
333.6622	0.000186
334.3021	0.000904
334.9422	-0.001165
335.5823	0.000946
336.2227	0.000756
336.8631	0.000588
337.5036	0.000651
338.1443	0.001643
338.7851	0.000123
339.4260	0.000609
340.0670	-0.000004
340.7082	0.001390
341.3495	-0.000468
341.9909	0.002276
342.6324	-0.001228
343.2740	0.000545
343.9158	-0.000341
344.5577	0.000419
345.1997	-0.001122
345.8418	0.000229
346.4840	-0.000700
347.1264	0.000334
347.7689	0.000904
348.4115	0.000461
349.0542	-0.000806
349.6971	-0.000088
350.3400	-0.000489
350.9831	0.001390
351.6263	0.000714
352.2696	-0.000405
352.9131	-0.000151
353.5566	0.000123
354.2003	0.000693
354.8441	0.001580
355.4881	0.001094
356.1321	0.001136
356.7763	0.000060
357.4206	0.000989
358.0650	0.000398
358.7095	0.000250
359.3541	0.000186
359.9989	0.001960
360.6438	0.001094
361.2888	0.000271
361.9339	0.000398
362.5791	0.000376
363.2245	-0.000215
363.8699	0.000672
364.5155	-0.000426
365.1612	0.000503
365.8071	0.000060
366.4530	0.000630
367.0991	0.001495
367.7453	0.001369
368.3916	-0.000067
369.0380	0.002192
369.6845	0.000039
370.3312	-0.000278
370.9780	0.000208
371.6249	0.000820
372.2719	0.000799
372.9190	0.000060
373.5663	0.000609
374.2136	-0.000109
374.8611	0.000609
375.5087	0.001495
376.1564	-0.001038
376.8043	0.000482
377.4522	0.000123
378.1003	0.001284
378.7485	0.001158
379.3968	0.001200
380.0452	-0.000236
380.6938	0.001284
381.3424	0.000989
381.9912	0.000904
382.6401	0.000102
383.2891	0.001390
383.9382	-0.000679
384.5875	0.002065
385.2368	0.001643
385.8863	-0.000130
386.5359	0.000334
387.1856	0.001263
387.8355	0.000714
388.4854	0.001242
389.1355	-0.000278
389.7856	0.000883
390.4359	0.001981
391.0863	0.001749
391.7369	0.000756
392.3875	0.001643
393.0383	0.001601
393.6891	0.002255
394.3401	0.003142
394.9912	0.001453
395.6425	0.004050
396.2938	0.003395
396.9453	0.004324
397.5968	0.004556
398.2485	0.003374
398.9003	0.006456
399.5522	0.003860
400.2043	0.003902
400.8564	0.005063
401.5087	0.006224
402.1610	0.005549
402.8135	0.006858
403.4661	0.006583
404.1189	0.006731
404.7717	0.006731
405.4246	0.007238
406.0777	0.008673
406.7309	0.007005
407.3842	0.008969
408.0376	0.007322
408.6911	0.009116
409.3448	0.007829
409.9985	0.009285
410.6524	0.010320
411.3064	0.008420
411.9605	0.010066
412.6147	0.010679
413.2690	0.012135
413.9234	0.011629
414.5780	0.011227
415.2326	0.012790
415.8874	0.012114
416.5423	0.012410
417.1973	0.012874
417.8524	0.011776
418.5077	0.012747
419.1630	0.015196
419.8185	0.014837
420.4741	0.014859
421.1298	0.017265
421.7856	0.019820
422.4415	0.018490
423.0975	0.017856
423.7536	0.017603
424.4099	0.016231
425.0663	0.017202
425.7228	0.018933
426.3793	0.016505
427.0361	0.017223
427.6929	0.019545
428.3498	0.019397
429.0068	0.018532
429.6640	0.021445
430.3213	0.020896
430.9787	0.022543
431.6362	0.020115
432.2938	0.019250
432.9515	0.018574
433.6093	0.019989
434.2673	0.021677
434.9253	0.021804
435.5835	0.019925
436.2418	0.020812
436.9001	0.022374
437.5586	0.021910
438.2173	0.020812
438.8760	0.021213
439.5348	0.022649
440.1938	0.020685
440.8528	0.022290
441.5120	0.026997
442.1713	0.029151
442.8307	0.024527
443.4902	0.024844
444.1498	0.025520
444.8095	0.023788
445.4694	0.023387
446.1293	0.024316
446.7894	0.023451
447.4496	0.023071
448.1098	0.023092
448.7702	0.024021
449.4307	0.022416
450.0914	0.021234
450.7521	0.022839
451.4129	0.020242
452.0739	0.021551
452.7349	0.019271
453.3961	0.017117
454.0574	0.016590
454.7188	0.017012
455.3803	0.018321
456.0419	0.017476
456.7036	0.016801
457.3654	0.017160
458.0274	0.017877
458.6894	0.017666
459.3516	0.017751
460.0138	0.017962
460.6762	0.017160
461.3387	0.016379
462.0013	0.015365
462.6640	0.013402
463.3268	0.014436
463.9897	0.015217
464.6528	0.017160
465.3159	0.014880
465.9792	0.016695
466.6425	0.014099
467.3060	0.013423
467.9696	0.011122
468.6333	0.010805
469.2970	0.009792
469.9610	0.011354
470.6250	0.007596
471.2891	0.008948
471.9533	0.007955
472.6177	0.008694
473.2821	0.008948
473.9467	0.008926
474.6113	0.008800
475.2761	0.010130
475.9410	0.008420
476.6060	0.008335
477.2711	0.007449
477.9363	0.007090
478.6016	0.007449
479.2670	0.006710
479.9325	0.007850
480.5982	0.007428
481.2639	0.005739
481.9298	0.007385
482.5957	0.006900
483.2618	0.006076
483.9280	0.006963
484.5943	0.007406
485.2606	0.007554
485.9271	0.019630
486.5937	0.014289
487.2605	0.010151
487.9273	0.004831
488.5942	0.005021
489.2612	0.004409
489.9284	0.006076
490.5956	0.004345
491.2630	0.003775
491.9304	0.003649
492.5980	0.005148
493.2657	0.003459
493.9334	0.005190
494.6013	0.004092
495.2693	0.003374
495.9374	0.004008
496.6056	0.005253
497.2739	0.004641
497.9423	0.005739
498.6109	0.002910
499.2795	0.003058
499.9482	0.003459
500.6171	0.003332
501.2860	0.003311
501.9551	0.004472
502.6242	0.003395
503.2935	0.004092
503.9628	0.002868
504.6323	0.002044
505.3019	0.002635
505.9716	0.004451
506.6414	0.002846
507.3113	0.002530
507.9813	0.002192
508.6514	0.002171
509.3216	0.002846
509.9919	0.002509
510.6623	0.002635
511.3329	0.002086
512.0035	0.003015
512.6742	0.004430
513.3451	0.001390
514.0160	0.003522
514.6871	0.003796
515.3582	0.003564
516.0295	0.003311
516.7008	0.004008
517.3723	0.004134
518.0439	0.003902
518.7155	0.003459
519.3873	0.003712
520.0592	0.003501
520.7312	0.003036
521.4033	0.004008
522.0755	0.003226
522.7478	0.004493
523.4202	0.002804
524.0927	0.004113
524.7653	0.003522
525.4380	0.004894
526.1108	0.002973
526.7837	0.005316
527.4568	0.004514
528.1299	0.004451
528.8031	0.005464
529.4765	0.004746
530.1499	0.004599
530.8234	0.005844
531.4971	0.004176
532.1708	0.005422
532.8447	0.006731
533.5186	0.007554
534.1927	0.007702
534.8668	0.007428
535.5411	0.007026
536.2155	0.007364
536.8899	0.006879
537.5645	0.008610
538.2392	0.009940
538.9139	0.008948
539.5888	0.010193
540.2638	0.009855
540.9389	0.009961
541.6140	0.011312
542.2893	0.011460
542.9647	0.011629
543.6402	0.012811
544.3158	0.016210
544.9915	0.014141
545.6673	0.012579
546.3432	0.014753
547.0192	0.016906
547.6953	0.015809
548.3715	0.019355
549.0478	0.016885
549.7242	0.018680
550.4007	0.016843
551.0773	0.016569
551.7540	0.017139
552.4308	0.021297
553.1077	0.022269
553.7847	0.024063
554.4618	0.022015
555.1390	0.022543
555.8163	0.023683
556.4937	0.024570
557.1712	0.023155
557.8488	0.025794
558.5266	0.023915
559.2044	0.023219
559.8823	0.025308
560.5603	0.029932
561.2384	0.032423
561.9166	0.033373
562.5949	0.031874
563.2733	0.032782
563.9519	0.034070
564.6305	0.037869
565.3092	0.039959
565.9880	0.038102
566.6669	0.039495
567.3459	0.049692
568.0250	0.053407
568.7043	0.061809
569.3836	0.072998
570.0630	0.097529
570.7425	0.102870
571.4221	0.119104
572.1018	0.133164
572.7816	0.116128
573.4615	0.131159
574.1415	0.151003
574.8216	0.167132
575.5018	0.164894
576.1821	0.152375
576.8626	0.173338
577.5431	0.188137
578.2237	0.231478
578.9044	0.194850
579.5851	0.195737
580.2660	0.202408
580.9470	0.196370
581.6281	0.304627
582.3093	0.293544
582.9906	0.231647
583.6720	0.186089
584.3535	0.192549
585.0351	0.217692
585.7167	0.223857
586.3985	0.197658
587.0804	0.207939
587.7624	0.220563
588.4445	0.194639
589.1266	0.170552
589.8089	0.160355
590.4913	0.145852
591.1737	0.129385
591.8563	0.126514
592.5389	0.147604
593.2217	0.196877
593.9046	0.185878
594.5875	0.165823
595.2705	0.194597
595.9537	0.171818
596.6369	0.141545
597.3203	0.145915
598.0037	0.143255
598.6872	0.147435
599.3709	0.178637
600.0546	0.177940
600.7384	0.177497
601.4223	0.181403
602.1064	0.163416
602.7905	0.167871
603.4747	0.186554
604.1590	0.172283
604.8434	0.155204
605.5279	0.161115
606.2125	0.168799
606.8972	0.155478
607.5819	0.156027
608.2668	0.145683
608.9518	0.140089
609.6369	0.129575
610.3220	0.149673
611.0073	0.139582
611.6927	0.135698
612.3781	0.127169
613.0637	0.126662
613.7493	0.121215
614.4351	0.123115
615.1209	0.124319
615.8068	0.127084
616.4929	0.111441
617.1790	0.109224
617.8652	0.109351
618.5515	0.101477
619.2379	0.091428
619.9244	0.092610
620.6110	0.094932
621.2977	0.075046
621.9845	0.080387
622.6714	0.083321
623.3584	0.089950
624.0454	0.086762
624.7326	0.092082
625.4199	0.083891
626.1072	0.075320
626.7947	0.070465
627.4822	0.071225
628.1698	0.063266
628.8576	0.056236
629.5454	0.064321
630.2333	0.060332
630.9213	0.055054
631.6094	0.053069
632.2976	0.051507
632.9859	0.045765
633.6743	0.046314
634.3628	0.042472
635.0514	0.039706
635.7400	0.041057
636.4288	0.046694
637.1177	0.044139
637.8066	0.040297
638.4957	0.044224
639.1848	0.041226
639.8740	0.041312
640.5633	0.036258
641.2528	0.034462
641.9423	0.031758
642.6319	0.030613
643.3216	0.028587
644.0113	0.029254
644.7012	0.028278
645.3912	0.026694
646.0812	0.027679
646.7714	0.025243
647.4616	0.024679
648.1520	0.027600
648.8424	0.034303
649.5329	0.034090
650.2236	0.030151
650.9143	0.028174
651.6051	0.029993
652.2960	0.032090
652.9870	0.031283
653.6780	0.030682
654.3692	0.034222
655.0605	0.068077
655.7518	0.941712
656.4433	1.000000
657.1348	0.856580
657.8264	0.526672
658.5181	0.405614
659.2099	0.329139
659.9018	0.101123
660.5938	0.031939
661.2859	0.025681
661.9781	0.022059
662.6704	0.022802
663.3627	0.023367
664.0552	0.020940
664.7477	0.020738
665.4403	0.024481
666.1330	0.024714
666.8259	0.021600
667.5188	0.022353
668.2117	0.022006
668.9048	0.020896
669.5980	0.021044
670.2913	0.022269
670.9846	0.022311
671.6781	0.030058
672.3716	0.033858
673.0652	0.034703
673.7589	0.030080
674.4527	0.029805
675.1466	0.027715
675.8406	0.026364
676.5347	0.025245
677.2288	0.023704
677.9231	0.031093
678.6174	0.031072
679.3119	0.031853
680.0064	0.035188
680.7010	0.032803
681.3957	0.036328
682.0905	0.034027
682.7854	0.031663
683.4803	0.031768
684.1754	0.033521
684.8705	0.038081
685.5658	0.044878
686.2611	0.043759
686.9565	0.041923
687.6520	0.043358
688.3476	0.039664
689.0433	0.035463
689.7390	0.036371
690.4349	0.031916
691.1308	0.038904
691.8269	0.035801
692.5230	0.038735
693.2192	0.039094
693.9155	0.037827
694.6119	0.032740
695.3083	0.037701
696.0049	0.030438
696.7016	0.034534
697.3983	0.036603
698.0951	0.039009
698.7920	0.037616
699.4890	0.035041
700.1861	0.030270
700.8833	0.031114
701.5806	0.028412
702.2779	0.027293
702.9753	0.030840
703.6729	0.028581
704.3705	0.028560
705.0682	0.024295
705.7660	0.023662
706.4638	0.031578
707.1618	0.036181
707.8599	0.037574
708.5580	0.038503
709.2562	0.032634
709.9545	0.033267
710.6529	0.036265
711.3514	0.032486
712.0500	0.029256
712.7486	0.032127
713.4474	0.032233
714.1462	0.033478
714.8451	0.035864
715.5441	0.035970
716.2432	0.029974
716.9424	0.029594
717.6416	0.026997
718.3410	0.029911
719.0404	0.029045
719.7399	0.031283
720.4395	0.027187
721.1392	0.029467
721.8390	0.030586
722.5388	0.029488
723.2388	0.027208
723.9388	0.029151
724.6389	0.027842
725.3391	0.032381
726.0394	0.033690
726.7398	0.034238
727.4403	0.030713
728.1408	0.033605
728.8414	0.033837
729.5421	0.038102
730.2429	0.037321
730.9438	0.044604
731.6448	0.041648
732.3458	0.041691
733.0470	0.044097
733.7482	0.047749
734.4495	0.052964
735.1509	0.049164
735.8524	0.048045
736.5539	0.048636
737.2556	0.050515
737.9573	0.046082
738.6591	0.039326
739.3610	0.045997
740.0630	0.044477
740.7651	0.039558
741.4672	0.034808
742.1695	0.034682
742.8718	0.036772
743.5742	0.029868
744.2767	0.031705
744.9792	0.029594
745.6819	0.025857
746.3846	0.030924
747.0874	0.030945
747.7903	0.031156
748.4933	0.027863
749.1964	0.033141
749.8995	0.035927
750.6028	0.043105
751.3061	0.039432
752.0095	0.037764
752.7130	0.038482
753.4166	0.039812
754.1202	0.042028
754.8239	0.042345
755.5278	0.041775
756.2317	0.046778
756.9356	0.050473
757.6397	0.058136
758.3438	0.057017
759.0481	0.052985
759.7524	0.061260
760.4568	0.061387
761.1613	0.064216
761.8658	0.055012
762.5705	0.047792
763.2752	0.051022
763.9800	0.050114
764.6849	0.057165
765.3898	0.055666
766.0949	0.050114
766.8000	0.041036
767.5052	0.039136
768.2105	0.043717
768.9159	0.051085
769.6214	0.046504
770.3269	0.045976
771.0325	0.051275
771.7382	0.044794
772.4440	0.040762
773.1499	0.038165
773.8558	0.037701
774.5618	0.034450
775.2679	0.030776
775.9741	0.026744
776.6804	0.026406
777.3868	0.025224
778.0932	0.025878
778.7997	0.028961
779.5063	0.030058
780.2130	0.028011
780.9197	0.031621
781.6265	0.034766
782.3335	0.035146
783.0405	0.033795
783.7475	0.034893
784.4547	0.030523
785.1619	0.029784
785.8692	0.028348
786.5766	0.027905
787.2841	0.028665
787.9917	0.030945
788.6993	0.032402
789.4070	0.031473
790.1148	0.026744
790.8227	0.026385
791.5306	0.024527
792.2387	0.022733
792.9468	0.020939
793.6550	0.024907
794.3632	0.031811
795.0716	0.031705
795.7800	0.029953
796.4885	0.022480
797.1971	0.020031
797.9058	0.022585
798.6145	0.024506
799.3233	0.023050
800.0322	0.019461
800.7412	0.018363
801.4503	0.019060
802.1594	0.017054
802.8686	0.015830
803.5779	0.018743
804.2873	0.017561
804.9968	0.016104
805.7063	0.017624
806.4159	0.023050
807.1256	0.022374
807.8354	0.024084
808.5452	0.022459
809.2551	0.021234
809.9651	0.019292
810.6752	0.019820
811.3853	0.019250
812.0956	0.016379
812.8059	0.015766
813.5163	0.017561
814.2267	0.019672
814.9373	0.017244
815.6479	0.014415
816.3586	0.012747
817.0694	0.014669
817.7802	0.015196
818.4912	0.014436
819.2022	0.013149
819.9133	0.012114
820.6244	0.013127
821.3357	0.014795
822.0470	0.015956
822.7584	0.014141
823.4698	0.012832
824.1814	0.012009
824.8930	0.012621
825.6047	0.012959
826.3165	0.012220
827.0283	0.014669
827.7402	0.014647
828.4522	0.012241
829.1643	0.013507
829.8765	0.012895
830.5887	0.010700
831.3010	0.009961
832.0134	0.008715
832.7259	0.010256
833.4384	0.009708
834.1510	0.010045
834.8637	0.009982
835.5765	0.009708
836.2893	0.009370
837.0022	0.008293
837.7152	0.007533
838.4283	0.007829
839.1414	0.008800
839.8546	0.008335
840.5679	0.006710
841.2813	0.008040
841.9947	0.007892
842.7082	0.006646
843.4218	0.005823
844.1355	0.006794
844.8492	0.005253
845.5631	0.006541
846.2770	0.004936
846.9909	0.002741
847.7050	0.004979
848.4191	0.005992
849.1333	0.005126
849.8475	0.006203
850.5619	0.005190
851.2763	0.006224
851.9908	0.005675
852.7053	0.008441
853.4200	0.013001
854.1347	0.013085
854.8495	0.015302
855.5643	0.011987
856.2792	0.012325
856.9942	0.011544
857.7093	0.010531
858.4245	0.009222
859.1397	0.008378
859.8550	0.009876
860.5704	0.006351
861.2858	0.006921
862.0013	0.006435
862.7169	0.006752
863.4326	0.007618
864.1483	0.007470
864.8642	0.005971
865.5800	0.007048
866.2960	0.005591
867.0120	0.007301
867.7281	0.005380
868.4443	0.005084
869.1606	0.004092
869.8769	0.006245
870.5933	0.005169
871.3097	0.004852
872.0263	0.004725
872.7429	0.006625
873.4596	0.004472
874.1763	0.005549
874.8932	0.006625
875.6101	0.006963
876.3270	0.005591
877.0441	0.005992
877.7612	0.007005
878.4784	0.006098
879.1957	0.007090
879.9130	0.007470
880.6304	0.007765
881.3479	0.007976
882.0654	0.005781
882.7831	0.005675
883.5007	0.005126
884.2185	0.006921
884.9363	0.006499
885.6542	0.005823
886.3722	0.007976
887.0903	0.005042
887.8084	0.006541
888.5266	0.005380
889.2448	0.004641
889.9632	0.004071
890.6816	0.004915
891.4001	0.005084
892.1186	0.006583
892.8372	0.004746
893.5559	0.004155
894.2747	0.005295
894.9935	0.005000
895.7124	0.004029
896.4314	0.005232
897.1504	0.006288
897.8695	0.005612
898.5887	0.004725
899.3079	0.005000
900.0272	0.003205
900.7466	0.005021
901.4661	0.006309
902.1856	0.005295
902.9052	0.004261
903.6249	0.004725
904.3446	0.004683
905.0644	0.005063
905.7843	0.006098
906.5043	0.005126
907.2243	0.005718
907.9444	0.005802
908.6645	0.004704
909.3847	0.001812
910.1050	0.002994
910.8254	0.005464
911.5458	0.004936
912.2663	0.005908
912.9869	0.004725
913.7075	0.004768
914.4283	0.003121
915.1490	0.003374
915.8699	0.003712
916.5908	0.003944
917.3118	0.003585
918.0328	0.004683
918.7539	0.003100
919.4751	0.005359
920.1964	0.004008
920.9177	0.003712
921.6391	0.003311
922.3606	0.004599
923.0821	0.004282
923.8037	0.002614
924.5254	0.003649
925.2471	0.002952
925.9689	0.001939
926.6908	0.001981
927.4127	0.002720
928.1347	0.004514
928.8568	0.003986
929.5789	0.000503
930.3011	0.001453
931.0234	0.002572
931.7457	0.002846
932.4681	0.002572
933.1906	0.003459
933.9131	0.002086
934.6358	0.001918
935.3584	-0.000109
936.0812	0.002298
936.8040	0.000946
937.5269	0.001960
938.2498	0.001305
938.9728	0.002129
939.6959	0.002488
940.4190	0.001369
941.1422	0.001136
941.8655	0.001179
942.5889	0.000904
943.3123	0.004029
944.0357	0.000524
944.7593	0.000778
945.4829	0.001369
946.2066	0.002403
946.9303	0.000841
947.6541	0.002086
948.3780	0.002108
949.1019	0.001010
949.8259	0.000778
950.5500	0.001453
951.2741	0.001369
951.9983	0.001453
952.7226	0.001432
953.4469	0.002783
954.1713	0.000862
954.8958	0.001622
955.6203	-0.000574
956.3449	0.000820
957.0696	0.001495
957.7943	0.000271
958.5191	0.000946
959.2439	0.001728
959.9688	0.000904
960.6938	0.001115
961.4189	-0.000299
962.1440	0.001052
962.8692	0.000482
963.5944	0.001200
964.3197	0.000588
965.0451	0.002086
965.7705	0.000102
966.4960	0.001918
967.2216	0.001200
967.9472	0.001390
968.6729	0.000482
969.3987	0.000482
970.1245	0.001136
970.8504	0.000482
971.5763	0.002340
972.3023	0.001728
973.0284	0.002129
973.7545	0.000482
974.4807	0.000271
975.2070	0.000946
975.9333	-0.000215
976.6597	-0.000320
977.3862	0.001200
978.1127	0.000735
978.8393	0.000376
979.5659	0.000229
980.2926	0.001622
981.0194	0.001749
981.7462	0.000566
982.4731	0.000630
983.2001	0.000271
983.9271	0.000883
984.6542	-0.000004
985.3814	0.000545
986.1086	-0.000552
986.8358	0.000482
987.5632	0.000545
988.2906	0.001728
989.0180	-0.000278
989.7456	0.000081
990.4732	0.000630
991.2008	0.000862
991.9285	0.001115
992.6563	0.001031
993.3841	0.000419
994.1120	0.000144
994.8400	0.000039
995.5680	-0.000447
996.2961	0.001179
997.0242	0.000672
997.7524	-0.000531
998.4807	0.002065
999.2090	0.000778
999.9374	-0.000215
1000.67	0.001939
1001.39	0.000123
1002.12	0.000968
1002.85	-0.000468
1003.58	0.000186
1004.31	0.000355
1005.04	0.000419
1005.77	0.000503
1006.5	0.001453
1007.22	-0.000595
1007.95	0.001031
1008.68	0.000398
1009.41	0.002002
1010.14	0.000271
1010.87	0.000925
1011.6	0.000545
1012.33	0.001031
1013.06	-0.000236
1013.79	0.001432
1014.52	-0.000215
1015.25	0.000862
1015.98	-0.000764
1016.71	-0.000384
1017.44	0.000144
1018.17	0.000524
1018.9	-0.001861
1019.63	0.001305
1020.36	0.001453
1021.09	-0.000215
1021.82	-0.000278
1022.55	0.000524
1023.03	0.001622