File: Auto_Polymerization/Spectra/spectrum_2025-06-19_10-47-19.txt
# Wavelength (nm)	Intensity (a.u.)
197.7802	0.000547
198.3922	0.000526
199.0044	0.001433
199.6168	-0.000297
200.2292	0.000463
200.8418	-0.000171
201.4546	0.000885
202.0674	0.000463
202.6805	0.000463
203.2936	0.000463
203.9069	0.000885
204.5203	-0.001247
205.1338	-0.000846
205.7475	-0.000529
206.3614	0.000357
206.9753	-0.000572
207.5894	0.002278
208.2036	0.000357
208.8180	-0.000339
209.4325	0.001159
210.0471	-0.000719
210.6618	-0.001120
211.2767	0.000821
211.8918	-0.000107
212.5069	0.000019
213.1222	0.000568
213.7376	0.000040
214.3532	0.000019
214.9689	-0.000909
215.5847	0.000273
216.2007	0.000484
216.8168	0.000610
217.4330	0.002383
218.0494	-0.000635
218.6659	0.000188
219.2825	-0.000888
219.8992	0.001518
220.5161	0.000463
221.1332	0.000315
221.7503	0.000505
222.3676	0.000336
222.9850	-0.000255
223.6026	0.000990
224.2203	-0.000508
224.8381	0.001053
225.4561	0.000990
226.0742	0.000927
226.6924	0.001539
227.3107	0.000631
227.9292	0.000188
228.5478	0.000526
229.1666	0.000146
229.7855	0.000737
230.4045	-0.000234
231.0236	0.001201
231.6429	0.000251
232.2623	0.000948
232.8818	0.000842
233.5015	-0.000002
234.1213	0.001096
234.7413	0.001180
235.3613	0.000885
235.9815	0.002235
236.6018	-0.000171
237.2223	0.000273
237.8429	0.001982
238.4636	0.001560
239.0845	0.001370
239.7055	0.000463
240.3266	0.000104
240.9478	0.001518
241.5692	0.001075
242.1907	0.002214
242.8124	0.000125
243.4341	0.000104
244.0560	0.000737
244.6781	0.000969
245.3002	0.000969
245.9225	0.000040
246.5449	-0.000740
247.1675	0.000674
247.7902	0.000420
248.4130	0.000610
249.0359	0.000864
249.6590	0.001349
250.2822	-0.000213
250.9056	-0.000635
251.5290	0.000336
252.1526	0.000315
252.7763	0.000484
253.4002	0.002109
254.0242	0.000547
254.6483	0.001307
255.2725	0.000040
255.8969	0.001243
256.5214	0.000885
257.1460	-0.000213
257.7708	0.000378
258.3957	0.000969
259.0207	0.001075
259.6459	0.001159
260.2711	0.000821
260.8965	0.002130
261.5221	-0.000550
262.1477	0.000589
262.7735	0.000800
263.3995	0.001771
264.0255	0.000125
264.6517	-0.000107
265.2780	0.000167
265.9044	0.001539
266.5310	0.000463
267.1577	0.000441
267.7845	-0.000424
268.4114	0.001265
269.0385	0.001265
269.6657	0.001666
270.2931	-0.000888
270.9205	0.000610
271.5481	-0.000318
272.1758	0.001222
272.8037	0.000251
273.4316	0.001476
274.0597	0.000315
274.6880	0.001265
275.3163	0.001539
275.9448	0.001666
276.5734	0.000315
277.2022	0.000737
277.8310	0.002045
278.4600	0.001391
279.0891	0.000737
279.7184	0.000146
280.3477	-0.000550
280.9772	0.000484
281.6069	0.001180
282.2366	0.000948
282.8665	0.000969
283.4965	0.001011
284.1266	0.000125
284.7569	0.001201
285.3873	-0.000361
286.0178	-0.000234
286.6484	-0.000318
287.2792	0.000969
287.9101	0.000040
288.5411	0.002109
289.1723	0.000990
289.8035	0.001201
290.4349	0.000695
291.0665	0.001518
291.6981	0.000526
292.3299	-0.000318
292.9618	0.000399
293.5938	0.001180
294.2260	0.001307
294.8582	-0.000677
295.4906	-0.000065
296.1232	-0.000276
296.7558	0.000842
297.3886	0.001666
298.0215	0.001391
298.6545	0.001644
299.2877	-0.000487
299.9210	-0.000002
300.5544	0.001011
301.1879	0.000758
301.8215	0.000505
302.4553	0.001391
303.0892	0.000906
303.7233	0.001666
304.3574	0.001370
304.9917	0.001159
305.6261	-0.000276
306.2606	0.000737
306.8953	-0.000762
307.5301	0.001666
308.1650	0.000357
308.8000	0.001180
309.4351	0.001053
310.0704	0.000484
310.7058	0.000779
311.3413	0.000547
311.9770	-0.000445
312.6127	0.001771
313.2486	-0.000065
313.8846	0.001729
314.5208	0.000357
315.1570	0.000737
315.7934	0.001032
316.4299	0.000758
317.0666	0.001307
317.7033	0.000083
318.3402	0.000167
318.9772	0.000758
319.6143	0.001011
320.2516	0.002045
320.8890	0.001011
321.5265	0.001391
322.1641	0.001243
322.8018	0.000378
323.4397	-0.001352
324.0777	-0.000065
324.7158	0.000716
325.3540	0.000399
325.9924	0.000631
326.6308	-0.000909
327.2694	0.000526
327.9082	0.001497
328.5470	-0.001437
329.1860	-0.000023
329.8251	-0.000973
330.4643	0.000674
331.1036	-0.000846
331.7431	0.000230
332.3826	0.000610
333.0223	0.002510
333.6622	-0.000424
334.3021	0.001877
334.9422	0.001412
335.5823	0.001222
336.2227	0.002763
336.8631	0.000294
337.5036	0.000251
338.1443	0.002045
338.7851	0.000315
339.4260	0.002341
340.0670	0.000357
340.7082	0.002088
341.3495	0.001581
341.9909	0.000083
342.6324	0.001307
343.2740	0.001813
343.9158	0.000800
344.5577	0.000441
345.1997	-0.000128
345.8418	0.000990
346.4840	-0.000487
347.1264	0.001391
347.7689	-0.001331
348.4115	-0.000297
349.0542	-0.000276
349.6971	-0.000044
350.3400	-0.001226
350.9831	0.000906
351.6263	-0.000466
352.2696	0.001433
352.9131	0.000631
353.5566	0.000040
354.2003	-0.000213
354.8441	0.001138
355.4881	-0.000318
356.1321	0.002130
356.7763	0.001834
357.4206	0.000821
358.0650	0.000885
358.7095	-0.000255
359.3541	0.000463
359.9989	0.001940
360.6438	0.001243
361.2888	0.001560
361.9339	-0.000192
362.5791	-0.000171
363.2245	0.000969
363.8699	0.001877
364.5155	0.000779
365.1612	-0.001099
365.8071	0.000758
366.4530	-0.000361
367.0991	-0.000023
367.7453	0.001476
368.3916	0.000378
369.0380	0.002045
369.6845	0.000547
370.3312	0.002320
370.9780	0.000505
371.6249	0.000864
372.2719	0.000990
372.9190	-0.000466
373.5663	0.001117
374.2136	0.000251
374.8611	0.001201
375.5087	0.000526
376.1564	0.000652
376.8043	0.000315
377.4522	0.000842
378.1003	-0.000002
378.7485	0.001349
379.3968	0.000251
380.0452	-0.000382
380.6938	0.001855
381.3424	0.000589
381.9912	0.001222
382.6401	0.000167
383.2891	0.000251
383.9382	0.000294
384.5875	0.001708
385.2368	0.001982
385.8863	0.000906
386.5359	0.000378
387.1856	0.002446
387.8355	0.002299
388.4854	0.001644
389.1355	0.001877
389.7856	0.003692
390.4359	0.002320
391.0863	0.004409
391.7369	0.005211
392.3875	0.006815
393.0383	0.007469
393.6891	0.007701
394.3401	0.008102
394.9912	0.008567
395.6425	0.010382
396.2938	0.012619
396.9453	0.012682
397.5968	0.013125
398.2485	0.016333
398.9003	0.018423
399.5522	0.019541
400.2043	0.018317
400.8564	0.020575
401.5087	0.018908
402.1610	0.017895
402.8135	0.021905
403.4661	0.021525
404.1189	0.022306
404.7717	0.024501
405.4246	0.025830
406.0777	0.024585
406.7309	0.025640
407.3842	0.022411
408.0376	0.024311
408.6911	0.027666
409.3448	0.027413
409.9985	0.027624
410.6524	0.026991
411.3064	0.027983
411.9605	0.026379
412.6147	0.029439
413.2690	0.029376
413.9234	0.029840
414.5780	0.027476
415.2326	0.031191
415.8874	0.027920
416.5423	0.030410
417.1973	0.029925
417.8524	0.028595
418.5077	0.028131
419.1630	0.031233
419.8185	0.031043
420.4741	0.030009
421.1298	0.034146
421.7856	0.040055
422.4415	0.035581
423.0975	0.036826
423.7536	0.035180
424.4099	0.032837
425.0663	0.032774
425.7228	0.031972
426.3793	0.030051
427.0361	0.029777
427.6929	0.031592
428.3498	0.031697
429.0068	0.029798
429.6640	0.035222
430.3213	0.036235
430.9787	0.034800
431.6362	0.031507
432.2938	0.028110
432.9515	0.026147
433.6093	0.032120
434.2673	0.032288
434.9253	0.030959
435.5835	0.030347
436.2418	0.030115
436.9001	0.031275
437.5586	0.030262
438.2173	0.030579
438.8760	0.029967
439.5348	0.031043
440.1938	0.027476
440.8528	0.031106
441.5120	0.035686
442.1713	0.035581
442.8307	0.034504
443.4902	0.033787
444.1498	0.033491
444.8095	0.032732
445.4694	0.031676
446.1293	0.031571
446.7894	0.031339
447.4496	0.028743
448.1098	0.029102
448.7702	0.028067
449.4307	0.027582
450.0914	0.027329
450.7521	0.026801
451.4129	0.025366
452.0739	0.025472
452.7349	0.025028
453.3961	0.023319
454.0574	0.022496
454.7188	0.021989
455.3803	0.021230
456.0419	0.020301
456.7036	0.021272
457.3654	0.021863
458.0274	0.021842
458.6894	0.023298
459.3516	0.020913
460.0138	0.021504
460.6762	0.019309
461.3387	0.019436
462.0013	0.017853
462.6640	0.016017
463.3268	0.016059
463.9897	0.017093
464.6528	0.018380
465.3159	0.019203
465.9792	0.018887
466.6425	0.014624
467.3060	0.015088
467.9696	0.013315
468.6333	0.014349
469.2970	0.012661
469.9610	0.010403
470.6250	0.009770
471.2891	0.011015
471.9533	0.010804
472.6177	0.009812
473.2821	0.012492
473.9467	0.012302
474.6113	0.010382
475.2761	0.010994
475.9410	0.009369
476.6060	0.009474
477.2711	0.006836
477.9363	0.009833
478.6016	0.008503
479.2670	0.009453
479.9325	0.009137
480.5982	0.008419
481.2639	0.007089
481.9298	0.008166
482.5957	0.006520
483.2618	0.007680
483.9280	0.006773
484.5943	0.007744
485.2606	0.007406
485.9271	0.020048
486.5937	0.013505
487.2605	0.011289
487.9273	0.007638
488.5942	0.005485
489.2612	0.005549
489.9284	0.005886
490.5956	0.004979
491.2630	0.005675
491.9304	0.004071
492.5980	0.004304
493.2657	0.004831
493.9334	0.004198
494.6013	0.004325
495.2693	0.003291
495.9374	0.002868
496.6056	0.003776
497.2739	0.003734
497.9423	0.003185
498.6109	0.003776
499.2795	0.004093
499.9482	0.004304
500.6171	0.004578
501.2860	0.004472
501.9551	0.004008
502.6242	0.004578
503.2935	0.005422
503.9628	0.005127
504.6323	0.004641
505.3019	0.003417
505.9716	0.002657
506.6414	0.002383
507.3113	0.004304
507.9813	0.003101
508.6514	0.004219
509.3216	0.002784
509.9919	0.003185
510.6623	0.003797
511.3329	0.004852
512.0035	0.002130
512.6742	0.003734
513.3451	0.002615
514.0160	0.002573
514.6871	0.002425
515.3582	0.004304
516.0295	0.002826
516.7008	0.003586
517.3723	0.003080
518.0439	0.002446
518.7155	0.004430
519.3873	0.003080
520.0592	0.004282
520.7312	0.003670
521.4033	0.004810
522.0755	0.003502
522.7478	0.003122
523.4202	0.003586
524.0927	0.004515
524.7653	0.003692
525.4380	0.003269
526.1108	0.004198
526.7837	0.004451
527.4568	0.004451
528.1299	0.005232
528.8031	0.004261
529.4765	0.005148
530.1499	0.003839
530.8234	0.005675
531.4971	0.005781
532.1708	0.006604
532.8447	0.006435
533.5186	0.007891
534.1927	0.005929
534.8668	0.007068
535.5411	0.007765
536.2155	0.007216
536.8899	0.008947
537.5645	0.009031
538.2392	0.010276
538.9139	0.009474
539.5888	0.010614
540.2638	0.010677
540.9389	0.010276
541.6140	0.010276
542.2893	0.012408
542.9647	0.012978
543.6402	0.013273
544.3158	0.015953
544.9915	0.016924
545.6673	0.014265
546.3432	0.013505
547.0192	0.017515
547.6953	0.017726
548.3715	0.019520
549.0478	0.018401
549.7242	0.019689
550.4007	0.018127
551.0773	0.017536
551.7540	0.019710
552.4308	0.022306
553.1077	0.022496
553.7847	0.025155
554.4618	0.023910
555.1390	0.024522
555.8163	0.025493
556.4937	0.025282
557.1712	0.027265
557.8488	0.027730
558.5266	0.026252
559.2044	0.027287
559.8823	0.026611
560.5603	0.032900
561.2384	0.033702
561.9166	0.034314
562.5949	0.033154
563.2733	0.034990
563.9519	0.037902
564.6305	0.040857
565.3092	0.040941
565.9880	0.041047
566.6669	0.042693
567.3459	0.051916
568.0250	0.058057
568.7043	0.063798
569.3836	0.079879
570.0630	0.103116
570.7425	0.109299
571.4221	0.124917
572.1018	0.138487
572.7816	0.118775
573.4615	0.137010
574.1415	0.164108
574.8216	0.177003
575.5018	0.176454
576.1821	0.160668
576.8626	0.186057
577.5431	0.202919
578.2237	0.239684
578.9044	0.203489
579.5851	0.206317
580.2660	0.210876
580.9470	0.208913
581.6281	0.325263
582.3093	0.306079
582.9906	0.244432
583.6720	0.200218
584.3535	0.198129
585.0351	0.226726
585.7167	0.236919
586.3985	0.203996
587.0804	0.218199
587.7624	0.229722
588.4445	0.206887
589.1266	0.178628
589.8089	0.166092
590.4913	0.153978
591.1737	0.135195
591.8563	0.136377
592.5389	0.154231
593.2217	0.202919
593.9046	0.194731
594.5875	0.171642
595.2705	0.199627
595.9537	0.175441
596.6369	0.141737
597.3203	0.152986
598.0037	0.145367
598.6872	0.160161
599.3709	0.182026
600.0546	0.181815
600.7384	0.181646
601.4223	0.183039
602.1064	0.172212
602.7905	0.173310
603.4747	0.190341
604.1590	0.177172
604.8434	0.154822
605.5279	0.165986
606.2125	0.177298
606.8972	0.157523
607.5819	0.160710
608.2668	0.152690
608.9518	0.143995
609.6369	0.134751
610.3220	0.153218
611.0073	0.141969
611.6927	0.139437
612.3781	0.129623
613.0637	0.131839
613.7493	0.131121
614.4351	0.126436
615.1209	0.126394
615.8068	0.132683
616.4929	0.114196
617.1790	0.110038
617.8652	0.110903
618.5515	0.106070
619.2379	0.091318
619.9244	0.095834
620.6110	0.093576
621.2977	0.073632
621.9845	0.079183
622.6714	0.086823
623.3584	0.091466
624.0454	0.091065
624.7326	0.090854
625.4199	0.088406
626.1072	0.079415
626.7947	0.072050
627.4822	0.069728
628.1698	0.065148
628.8576	0.059366
629.5454	0.063418
630.2333	0.062426
630.9213	0.056664
631.6094	0.053414
632.2976	0.050037
632.9859	0.046513
633.6743	0.045563
634.3628	0.043600
635.0514	0.043136
635.7400	0.041764
636.4288	0.047716
637.1177	0.043600
637.8066	0.040582
638.4957	0.043052
639.1848	0.041216
639.8740	0.036219
640.5633	0.036015
641.2528	0.033861
641.9423	0.032280
642.6319	0.030268
643.3216	0.029055
644.0113	0.029317
644.7012	0.029097
645.3912	0.028569
646.0812	0.026848
646.7714	0.025327
647.4616	0.024940
648.1520	0.030096
648.8424	0.032682
649.5329	0.033012
650.2236	0.031091
650.9143	0.028826
651.6051	0.030621
652.2960	0.033012
652.9870	0.033257
653.6780	0.034919
654.3692	0.035696
655.0605	0.064539
655.7518	0.958964
656.4433	1.006725
657.1348	0.883276
657.8264	0.541264
658.5181	0.411620
659.2099	0.332081
659.9018	0.101031
660.5938	0.032817
661.2859	0.024639
661.9781	0.023705
662.6704	0.020971
663.3627	0.021886
664.0552	0.022924
664.7477	0.022161
665.4403	0.024914
666.1330	0.023260
666.8259	0.022543
667.5188	0.023212
668.2117	0.019551
668.9048	0.023066
669.5980	0.021736
670.2913	0.021736
670.9846	0.021230
671.6781	0.028447
672.3716	0.032710
673.0652	0.031571
673.7589	0.030030
674.4527	0.028848
675.1466	0.025957
675.8406	0.025450
676.5347	0.024712
677.2288	0.025725
677.9231	0.027688
678.6174	0.029629
679.3119	0.031507
680.0064	0.035349
680.7010	0.033998
681.3957	0.037754
682.0905	0.032668
682.7854	0.029165
683.4803	0.032246
684.1754	0.033470
684.8705	0.038683
685.5658	0.046070
686.2611	0.043790
686.9565	0.044550
687.6520	0.044930
688.3476	0.041110
689.0433	0.034990
689.7390	0.039485
690.4349	0.032563
691.1308	0.036509
691.8269	0.039232
692.5230	0.037164
693.2192	0.037776
693.9155	0.036657
694.6119	0.035792
695.3083	0.035792
696.0049	0.031381
696.7016	0.036868
697.3983	0.037712
698.0951	0.039844
698.7920	0.037480
699.4890	0.032077
700.1861	0.033006
700.8833	0.027899
701.5806	0.028173
702.2779	0.029228
702.9753	0.030832
703.6729	0.027540
704.3705	0.027856
705.0682	0.025450
705.7660	0.024860
706.4638	0.029165
707.1618	0.037142
707.8599	0.038029
708.5580	0.037248
709.2562	0.034399
709.9545	0.033196
710.6529	0.036594
711.3514	0.033154
712.0500	0.027793
712.7486	0.030663
713.4474	0.031001
714.1462	0.034399
714.8451	0.034863
715.5441	0.036256
716.2432	0.029038
716.9424	0.028848
717.6416	0.029165
718.3410	0.028194
719.0404	0.028236
719.7399	0.029566
720.4395	0.028701
721.1392	0.030093
721.8390	0.029418
722.5388	0.029798
723.2388	0.027709
723.9388	0.028616
724.6389	0.026231
725.3391	0.032457
726.0394	0.036235
726.7398	0.032689
727.4403	0.033048
728.1408	0.034420
728.8414	0.034525
729.5421	0.037417
730.2429	0.037881
730.9438	0.044107
731.6448	0.041363
732.3458	0.040139
733.0470	0.043600
733.7482	0.046027
734.4495	0.050966
735.1509	0.049067
735.8524	0.048222
736.5539	0.048075
737.2556	0.047315
737.9573	0.042904
738.6591	0.042334
739.3610	0.046703
740.0630	0.045584
740.7651	0.040751
741.4672	0.037100
742.1695	0.035095
742.8718	0.033111
743.5742	0.030832
744.2767	0.027329
744.9792	0.032921
745.6819	0.029376
746.3846	0.028363
747.0874	0.027476
747.7903	0.030537
748.4933	0.028869
749.1964	0.030262
749.8995	0.037417
750.6028	0.041997
751.3061	0.039316
752.0095	0.040857
752.7130	0.035665
753.4166	0.038535
754.1202	0.042862
754.8239	0.039105
755.5278	0.039781
756.2317	0.043917
756.9356	0.052380
757.6397	0.058880
758.3438	0.056812
759.0481	0.054132
759.7524	0.058458
760.4568	0.062975
761.1613	0.062004
761.8658	0.053245
762.5705	0.046851
763.2752	0.048370
763.9800	0.048666
764.6849	0.057276
765.3898	0.056453
766.0949	0.049615
766.8000	0.041279
767.5052	0.040308
768.2105	0.043347
768.9159	0.049088
769.6214	0.046618
770.3269	0.045204
771.0325	0.048286
771.7382	0.045816
772.4440	0.040941
773.1499	0.040730
773.8558	0.036003
774.5618	0.033217
775.2679	0.030579
775.9741	0.026590
776.6804	0.026316
777.3868	0.026126
778.0932	0.025218
778.7997	0.029334
779.5063	0.031782
780.2130	0.031592
780.9197	0.028933
781.6265	0.035623
782.3335	0.036383
783.0405	0.035623
783.7475	0.036974
784.4547	0.032689
785.1619	0.030030
785.8692	0.029481
786.5766	0.028110
787.2841	0.028236
787.9917	0.031360
788.6993	0.030368
789.4070	0.029882
790.1148	0.028046
790.8227	0.026062
791.5306	0.024353
792.2387	0.022475
792.9468	0.020976
793.6550	0.022855
794.3632	0.032373
795.0716	0.031022
795.7800	0.030262
796.4885	0.023804
797.1971	0.020428
797.9058	0.023002
798.6145	0.020997
799.3233	0.023994
800.0322	0.020850
800.7412	0.019731
801.4503	0.017937
802.1594	0.018380
802.8686	0.016966
803.5779	0.018824
804.2873	0.015890
804.9968	0.017979
805.7063	0.016861
806.4159	0.022918
807.1256	0.024184
807.8354	0.022496
808.5452	0.022517
809.2551	0.023762
809.9651	0.018866
810.6752	0.020132
811.3853	0.020617
812.0956	0.017515
812.8059	0.014898
813.5163	0.017557
814.2267	0.019203
814.9373	0.018760
815.6479	0.016397
816.3586	0.013083
817.0694	0.014328
817.7802	0.016544
818.4912	0.014096
819.2022	0.013125
819.9133	0.012872
820.6244	0.016840
821.3357	0.015109
822.0470	0.014138
822.7584	0.011120
823.4698	0.010424
824.1814	0.009833
824.8930	0.009981
825.6047	0.012133
826.3165	0.011627
827.0283	0.014033
827.7402	0.014687
828.4522	0.014349
829.1643	0.014033
829.8765	0.013611
830.5887	0.010846
831.3010	0.008947
832.0134	0.008651
832.7259	0.009221
833.4384	0.010572
834.1510	0.009580
834.8637	0.009601
835.5765	0.011268
836.2893	0.009242
837.0022	0.007533
837.7152	0.006710
838.4283	0.008250
839.1414	0.005591
839.8546	0.007490
840.5679	0.007934
841.2813	0.007469
841.9947	0.005696
842.7082	0.005929
843.4218	0.004219
844.1355	0.004641
844.8492	0.006330
845.5631	0.006456
846.2770	0.004135
846.9909	0.004304
847.7050	0.005633
848.4191	0.006393
849.1333	0.004029
849.8475	0.004451
850.5619	0.005127
851.2763	0.004662
851.9908	0.006667
852.7053	0.008926
853.4200	0.014181
854.1347	0.013822
854.8495	0.014560
855.5643	0.012133
856.2792	0.010656
856.9942	0.010762
857.7093	0.011775
858.4245	0.010656
859.1397	0.010424
859.8550	0.009305
860.5704	0.009601
861.2858	0.005992
862.0013	0.007132
862.7169	0.006203
863.4326	0.007195
864.1483	0.006646
864.8642	0.005929
865.5800	0.005148
866.2960	0.003776
867.0120	0.004472
867.7281	0.006119
868.4443	0.006330
869.1606	0.005507
869.8769	0.005317
870.5933	0.004494
871.3097	0.006097
872.0263	0.005190
872.7429	0.005886
873.4596	0.004789
874.1763	0.005739
874.8932	0.004494
875.6101	0.005802
876.3270	0.005950
877.0441	0.005950
877.7612	0.007511
878.4784	0.007912
879.1957	0.008398
879.9130	0.006498
880.6304	0.009348
881.3479	0.006224
882.0654	0.007364
882.7831	0.006498
883.5007	0.007068
884.2185	0.007279
884.9363	0.005718
885.6542	0.008588
886.3722	0.007427
887.0903	0.007343
887.8084	0.006921
888.5266	0.005929
889.2448	0.006161
889.9632	0.004979
890.6816	0.004472
891.4001	0.004789
892.1186	0.005929
892.8372	0.005802
893.5559	0.005338
894.2747	0.004810
894.9935	0.005528
895.7124	0.003269
896.4314	0.006245
897.1504	0.005612
897.8695	0.005718
898.5887	0.004261
899.3079	0.006076
900.0272	0.004135
900.7466	0.006076
901.4661	0.005169
902.1856	0.005274
902.9052	0.004937
903.6249	0.006119
904.3446	0.005296
905.0644	0.004325
905.7843	0.005169
906.5043	0.004050
907.2243	0.002742
907.9444	0.004979
908.6645	0.001877
909.3847	0.003649
910.1050	0.004282
910.8254	0.003164
911.5458	0.005211
912.2663	0.003080
912.9869	0.003755
913.7075	0.003692
914.4283	0.003101
915.1490	0.003987
915.8699	0.002594
916.5908	0.003312
917.3118	0.004683
918.0328	0.005148
918.7539	0.003924
919.4751	0.004409
920.1964	0.004768
920.9177	0.002320
921.6391	0.003206
922.3606	0.003755
923.0821	0.004937
923.8037	0.002172
924.5254	0.002805
925.2471	0.004409
925.9689	0.003312
926.6908	0.003291
927.4127	0.003502
928.1347	0.002320
928.8568	0.002510
929.5789	0.001011
930.3011	0.001539
931.0234	0.002235
931.7457	0.001349
932.4681	0.004093
933.1906	0.001666
933.9131	0.001982
934.6358	0.001813
935.3584	0.002193
936.0812	0.002573
936.8040	0.001581
937.5269	0.002024
938.2498	0.002911
938.9728	0.001877
939.6959	0.002932
940.4190	0.002320
941.1422	0.000927
941.8655	0.001940
942.5889	-0.000023
943.3123	0.000737
944.0357	0.001813
944.7593	0.002320
945.4829	-0.000255
946.2066	0.001454
946.9303	0.001032
947.6541	0.001075
948.3780	0.002193
949.1019	0.002109
949.8259	0.001560
950.5500	0.002151
951.2741	0.001180
951.9983	0.001729
952.7226	0.002425
953.4469	0.000906
954.1713	0.001855
954.8958	0.002700
955.6203	0.000927
956.3449	0.000420
957.0696	0.001729
957.7943	0.000125
958.5191	0.001518
959.2439	0.001602
959.9688	0.000631
960.6938	0.001919
961.4189	0.001328
962.1440	0.000378
962.8692	-0.000023
963.5944	0.001771
964.3197	0.001518
965.0451	0.000758
965.7705	0.002679
966.4960	0.001159
967.2216	0.001222
967.9472	0.002826
968.6729	-0.000804
969.3987	-0.000107
970.1245	0.001539
970.8504	0.000209
971.5763	0.001075
972.3023	-0.000128
973.0284	0.001476
973.7545	0.002214
974.4807	0.000209
975.2070	0.002003
975.9333	0.002425
976.6597	0.000800
977.3862	0.001961
978.1127	0.001075
978.8393	0.000864
979.5659	0.001602
980.2926	0.002003
981.0194	0.001581
981.7462	0.001159
982.4731	0.000040
983.2001	-0.000382
983.9271	0.001877
984.6542	-0.000002
985.3814	0.001053
986.1086	0.001581
986.8358	0.000948
987.5632	0.001476
988.2906	0.000948
989.0180	0.000610
989.7456	0.001560
990.4732	0.000441
991.2008	0.000652
991.9285	0.001729
992.6563	0.001433
993.3841	0.000230
994.1120	0.000125
994.8400	-0.000424
995.5680	0.000463
996.2961	-0.001500
997.0242	0.000716
997.7524	0.001180
998.4807	0.001096
999.2090	0.001180
999.9374	0.000463
1000.67	0.001412
1001.39	0.000969
1002.12	0.002299
1002.85	0.000209
1003.58	0.000631
1004.31	-0.000508
1005.04	0.000441
1005.77	-0.000107
1006.5	0.001708
1007.22	0.001581
1007.95	0.000674
1008.68	0.000019
1009.41	0.001497
1010.14	0.001412
1010.87	0.001265
1011.6	-0.000677
1012.33	0.000125
1013.06	0.000842
1013.79	0.000821
1014.52	-0.000002
1015.25	-0.000044
1015.98	0.001433
1016.71	0.000568
1017.44	-0.000698
1018.17	0.002256
1018.9	0.000357
1019.63	0.000927
1020.36	0.000547
1021.09	0.001053
1021.82	0.000062
1022.55	-0.000424
1023.03	0.001138