File: Auto_Polymerization/Spectra/spectrum_2025-06-19_11-38-50.txt
# Wavelength (nm)	Intensity (a.u.)
197.7802	0.000498
198.3922	-0.001106
199.0044	0.000688
199.6168	-0.000705
200.2292	0.000350
200.8418	-0.000283
201.4546	0.000266
202.0674	-0.000220
202.6805	-0.000157
203.2936	0.001047
203.9069	0.001427
204.5203	0.000646
205.1338	0.000287
205.7475	0.000941
206.3614	0.000033
206.9753	-0.000410
207.5894	0.000118
208.2036	0.000266
208.8180	0.000624
209.4325	-0.000494
210.0471	0.000878
210.6618	0.001089
211.2767	0.000033
211.8918	0.000878
212.5069	0.000477
213.1222	-0.000769
213.7376	-0.000790
214.3532	0.000751
214.9689	0.001553
215.5847	0.000751
216.2007	0.001363
216.8168	-0.001296
217.4330	-0.000368
218.0494	0.000793
218.6659	0.000836
219.2825	-0.000093
219.8992	0.000287
220.5161	0.000477
221.1332	0.000371
221.7503	-0.000114
222.3676	0.000582
222.9850	0.000624
223.6026	-0.000325
224.2203	-0.000135
224.8381	0.000434
225.4561	-0.000220
226.0742	0.001680
226.6924	0.001131
227.3107	0.000772
227.9292	0.001194
228.5478	0.000308
229.1666	-0.000494
229.7855	-0.000347
230.4045	-0.000093
231.0236	0.000245
231.6429	0.001342
232.2623	0.000434
232.8818	0.000160
233.5015	-0.000452
234.1213	-0.000241
234.7413	-0.000304
235.3613	0.000223
235.9815	0.000329
236.6018	0.000097
237.2223	0.001216
237.8429	-0.000431
238.4636	0.002018
239.0845	-0.000262
239.7055	0.000118
240.3266	-0.001866
240.9478	0.000392
241.5692	-0.000663
242.1907	0.002102
242.8124	0.001828
243.4341	0.003073
244.0560	0.002947
244.6781	0.000287
245.3002	-0.000157
245.9225	0.000519
246.5449	-0.000241
247.1675	0.000730
247.7902	-0.000621
248.4130	0.000836
249.0359	0.001089
249.6590	0.000245
250.2822	0.001131
250.9056	0.000413
251.5290	-0.000410
252.1526	0.002313
252.7763	0.001258
253.4002	0.000498
254.0242	0.000899
254.6483	0.000688
255.2725	0.000181
255.8969	0.001743
256.5214	0.000540
257.1460	0.000033
257.7708	-0.000325
258.3957	0.000097
259.0207	0.000371
259.6459	0.000941
260.2711	0.000878
260.8965	0.000181
261.5221	-0.000241
262.1477	0.001722
262.7735	0.001047
263.3995	0.000012
264.0255	0.000667
264.6517	0.000287
265.2780	0.000709
265.9044	0.000434
266.5310	0.000962
267.1577	-0.000558
267.7845	-0.000452
268.4114	0.000836
269.0385	0.000793
269.6657	0.000582
270.2931	0.002081
270.9205	0.000202
271.5481	0.000751
272.1758	-0.000452
272.8037	-0.001381
273.4316	-0.000199
274.0597	0.001237
274.6880	0.000603
275.3163	0.000920
275.9448	0.000350
276.5734	-0.000135
277.2022	0.001785
277.8310	-0.000558
278.4600	0.000667
279.0891	0.000012
279.7184	-0.000368
280.3477	0.000329
280.9772	0.000709
281.6069	0.000139
282.2366	0.001004
282.8665	0.000223
283.4965	0.001173
284.1266	0.000793
284.7569	-0.000135
285.3873	-0.000072
286.0178	0.001427
286.6484	0.000793
287.2792	0.001469
287.9101	-0.000452
288.5411	0.000709
289.1723	-0.000684
289.8035	0.000456
290.4349	0.000667
291.0665	0.000624
291.6981	-0.000916
292.3299	-0.000135
292.9618	0.001131
293.5938	-0.000072
294.2260	0.000392
294.8582	0.000751
295.4906	0.000561
296.1232	0.001427
296.7558	0.000033
297.3886	0.001321
298.0215	0.000751
298.6545	0.001342
299.2877	0.000329
299.9210	0.001701
300.5544	-0.000283
301.1879	0.000730
301.8215	0.000097
302.4553	0.002334
303.0892	-0.000938
303.7233	-0.001191
304.3574	-0.000811
304.9917	0.000730
305.6261	0.001004
306.2606	-0.000051
306.8953	0.000688
307.5301	0.000983
308.1650	0.001089
308.8000	-0.000600
309.4351	0.000519
310.0704	0.000329
310.7058	-0.000600
311.3413	0.001363
311.9770	-0.000347
312.6127	-0.000325
313.2486	0.000329
313.8846	-0.000072
314.5208	-0.000853
315.1570	0.000561
315.7934	-0.000621
316.4299	0.001321
317.0666	-0.000241
317.7033	-0.000705
318.3402	0.001089
318.9772	0.001342
319.6143	-0.000241
320.2516	0.000983
320.8890	0.000983
321.5265	0.001047
322.1641	-0.000895
322.8018	0.001131
323.4397	0.000287
324.0777	0.000202
324.7158	0.000941
325.3540	0.001216
325.9924	-0.000178
326.6308	0.001363
327.2694	0.000139
327.9082	0.001722
328.5470	0.001089
329.1860	0.000709
329.8251	0.000392
330.4643	-0.000241
331.1036	0.000160
331.7431	0.001975
332.3826	0.000814
333.0223	-0.000114
333.6622	0.001279
334.3021	0.000793
334.9422	0.001300
335.5823	0.001173
336.2227	-0.000051
336.8631	0.000519
337.5036	0.001553
338.1443	0.001110
338.7851	0.000160
339.4260	-0.000515
340.0670	0.000857
340.7082	0.000667
341.3495	-0.000769
341.9909	0.002271
342.6324	0.000118
343.2740	0.001152
343.9158	0.000962
344.5577	0.000751
345.1997	0.000646
345.8418	0.000055
346.4840	-0.001296
347.1264	0.002039
347.7689	-0.000558
348.4115	0.000962
349.0542	0.000266
349.6971	-0.000135
350.3400	0.000836
350.9831	-0.000220
351.6263	-0.000790
352.2696	0.002250
352.9131	-0.000283
353.5566	0.001532
354.2003	0.001997
354.8441	0.001216
355.4881	0.000033
356.1321	0.001216
356.7763	0.000498
357.4206	-0.000452
358.0650	-0.000452
358.7095	0.001026
359.3541	0.000076
359.9989	-0.000684
360.6438	0.000582
361.2888	0.000709
361.9339	0.000519
362.5791	0.000287
363.2245	0.000646
363.8699	0.000139
364.5155	-0.000093
365.1612	0.001891
365.8071	-0.000938
366.4530	0.000202
367.0991	0.000540
367.7453	-0.001254
368.3916	-0.001275
369.0380	0.000561
369.6845	-0.000135
370.3312	0.001279
370.9780	0.000688
371.6249	0.000730
372.2719	0.000498
372.9190	0.000139
373.5663	-0.000727
374.2136	0.000751
374.8611	0.000561
375.5087	0.000582
376.1564	0.000118
376.8043	0.002355
377.4522	0.000456
378.1003	-0.000241
378.7485	-0.000537
379.3968	0.000772
380.0452	0.000667
380.6938	0.002039
381.3424	0.000540
381.9912	0.001089
382.6401	0.001173
383.2891	0.000160
383.9382	0.000266
384.5875	0.001448
385.2368	0.001047
385.8863	0.000519
386.5359	0.001131
387.1856	0.002820
387.8355	0.001237
388.4854	0.000012
389.1355	0.001342
389.7856	0.001194
390.4359	0.002102
391.0863	0.002947
391.7369	0.002778
392.3875	0.002377
393.0383	0.003749
393.6891	0.004825
394.3401	0.002461
394.9912	0.006176
395.6425	0.003854
396.2938	0.006134
396.9453	0.005015
397.5968	0.005670
398.2485	0.006894
398.9003	0.008097
399.5522	0.007379
400.2043	0.007295
400.8564	0.008034
401.5087	0.007464
402.1610	0.007105
402.8135	0.008604
403.4661	0.008920
404.1189	0.008730
404.7717	0.009976
405.4246	0.012319
406.0777	0.012467
406.7309	0.011369
407.3842	0.011327
408.0376	0.010461
408.6911	0.012488
409.3448	0.012045
409.9985	0.012572
410.6524	0.014451
411.3064	0.013881
411.9605	0.015127
412.6147	0.015317
413.2690	0.013269
413.9234	0.014282
414.5780	0.015549
415.2326	0.017301
415.8874	0.014873
416.5423	0.015190
417.1973	0.015359
417.8524	0.015591
418.5077	0.017385
419.1630	0.017301
419.8185	0.018483
420.4741	0.020573
421.1298	0.020362
421.7856	0.021860
422.4415	0.020805
423.0975	0.023317
423.7536	0.022409
424.4099	0.022409
425.0663	0.020193
425.7228	0.021333
426.3793	0.021860
427.0361	0.021037
427.6929	0.022451
428.3498	0.022747
429.0068	0.022578
429.6640	0.025829
430.3213	0.026019
430.9787	0.028425
431.6362	0.022958
432.2938	0.021037
432.9515	0.020615
433.6093	0.025787
434.2673	0.022620
434.9253	0.021290
435.5835	0.023317
436.2418	0.022916
436.9001	0.024583
437.5586	0.025238
438.2173	0.024900
438.8760	0.026019
439.5348	0.024204
440.1938	0.023021
440.8528	0.023971
441.5120	0.028278
442.1713	0.028869
442.8307	0.025576
443.4902	0.027138
444.1498	0.027813
444.8095	0.024204
445.4694	0.025702
446.1293	0.027961
446.7894	0.025217
447.4496	0.024583
448.1098	0.025808
448.7702	0.024267
449.4307	0.023549
450.0914	0.023380
450.7521	0.024246
451.4129	0.022050
452.0739	0.022641
452.7349	0.020425
453.3961	0.020362
454.0574	0.018715
454.7188	0.018040
455.3803	0.017850
456.0419	0.019201
456.7036	0.018314
457.3654	0.018968
458.0274	0.019116
458.6894	0.020636
459.3516	0.017892
460.0138	0.019559
460.6762	0.016879
461.3387	0.018926
462.0013	0.016182
462.6640	0.015633
463.3268	0.014177
463.9897	0.016604
464.6528	0.016161
465.3159	0.016034
465.9792	0.017259
466.6425	0.014894
467.3060	0.011475
467.9696	0.011644
468.6333	0.012023
469.2970	0.011221
469.9610	0.009533
470.6250	0.010799
471.2891	0.009701
471.9533	0.008667
472.6177	0.007675
473.2821	0.009828
473.9467	0.008942
474.6113	0.009047
475.2761	0.008730
475.9410	0.008815
476.6060	0.009427
477.2711	0.007717
477.9363	0.010018
478.6016	0.008160
479.2670	0.007527
479.9325	0.006873
480.5982	0.008350
481.2639	0.007865
481.9298	0.006324
482.5957	0.008709
483.2618	0.007105
483.9280	0.006050
484.5943	0.007907
485.2606	0.005543
485.9271	0.020720
486.5937	0.014008
487.2605	0.010166
487.9273	0.006028
488.5942	0.005754
489.2612	0.006113
489.9284	0.005564
490.5956	0.005311
491.2630	0.004361
491.9304	0.004234
492.5980	0.004297
493.2657	0.004150
493.9334	0.006197
494.6013	0.003875
495.2693	0.003643
495.9374	0.003432
496.6056	0.004255
497.2739	0.004319
497.9423	0.003812
498.6109	0.003622
499.2795	0.005057
499.9482	0.003854
500.6171	0.001891
501.2860	0.003031
501.9551	0.002672
502.6242	0.002250
503.2935	0.004108
503.9628	0.003896
504.6323	0.003538
505.3019	0.002630
505.9716	0.001638
506.6414	0.001701
507.3113	0.004192
507.9813	0.002440
508.6514	0.004445
509.3216	0.002292
509.9919	0.002651
510.6623	0.004635
511.3329	0.003432
512.0035	0.003010
512.6742	0.004213
513.3451	0.002588
514.0160	0.003706
514.6871	0.003094
515.3582	0.003812
516.0295	0.003390
516.7008	0.001089
517.3723	0.002588
518.0439	0.003073
518.7155	0.002925
519.3873	0.004171
520.0592	0.002440
520.7312	0.003812
521.4033	0.003369
522.0755	0.003875
522.7478	0.002187
523.4202	0.005100
524.0927	0.002968
524.7653	0.002229
525.4380	0.004424
526.1108	0.003305
526.7837	0.005944
527.4568	0.003643
528.1299	0.006261
528.8031	0.005754
529.4765	0.006430
530.1499	0.005247
530.8234	0.005437
531.4971	0.003854
532.1708	0.005648
532.8447	0.005311
533.5186	0.008393
534.1927	0.007696
534.8668	0.007971
535.5411	0.007232
536.2155	0.007464
536.8899	0.006451
537.5645	0.008393
538.2392	0.008540
538.9139	0.011285
539.5888	0.011074
540.2638	0.009828
540.9389	0.010419
541.6140	0.011179
542.2893	0.013016
542.9647	0.013839
543.6402	0.014641
544.3158	0.015253
544.9915	0.014388
545.6673	0.015528
546.3432	0.013797
547.0192	0.014303
547.6953	0.017343
548.3715	0.019602
549.0478	0.017216
549.7242	0.018800
550.4007	0.018546
551.0773	0.017997
551.7540	0.020172
552.4308	0.020910
553.1077	0.021185
553.7847	0.023275
554.4618	0.022198
555.1390	0.021649
555.8163	0.026420
556.4937	0.025280
557.1712	0.024457
557.8488	0.024647
558.5266	0.024668
559.2044	0.026652
559.8823	0.026146
560.5603	0.031613
561.2384	0.033914
561.9166	0.035075
562.5949	0.033745
563.2733	0.034716
563.9519	0.036996
564.6305	0.037523
565.3092	0.039064
565.9880	0.040458
566.6669	0.041471
567.3459	0.048247
568.0250	0.055846
568.7043	0.063066
569.3836	0.076639
570.0630	0.099732
570.7425	0.104651
571.4221	0.124219
572.1018	0.134352
572.7816	0.118034
573.4615	0.133549
574.1415	0.159155
574.8216	0.169034
575.5018	0.170828
576.1821	0.158353
576.8626	0.180264
577.5431	0.191853
578.2237	0.237027
578.9044	0.198629
579.5851	0.195378
580.2660	0.206461
580.9470	0.203569
581.6281	0.313274
582.3093	0.301727
582.9906	0.238526
583.6720	0.198714
584.3535	0.194006
585.0351	0.224573
585.7167	0.227338
586.3985	0.199389
587.0804	0.212477
587.7624	0.227591
588.4445	0.200635
589.1266	0.175472
589.8089	0.166628
590.4913	0.149044
591.1737	0.128483
591.8563	0.133275
592.5389	0.151809
593.2217	0.199811
593.9046	0.193436
594.5875	0.168443
595.2705	0.199009
595.9537	0.167958
596.6369	0.146384
597.3203	0.146869
598.0037	0.144822
598.6872	0.156960
599.3709	0.182080
600.0546	0.180771
600.7384	0.178386
601.4223	0.184444
602.1064	0.166543
602.7905	0.169752
603.4747	0.187336
604.1590	0.171504
604.8434	0.155186
605.5279	0.166058
606.2125	0.176845
606.8972	0.154701
607.5819	0.156981
608.2668	0.149846
608.9518	0.143049
609.6369	0.130615
610.3220	0.150775
611.0073	0.138025
611.6927	0.141064
612.3781	0.127681
613.0637	0.126098
613.7493	0.128188
614.4351	0.122066
615.1209	0.127871
615.8068	0.132726
616.4929	0.111321
617.1790	0.109443
617.8652	0.110625
618.5515	0.104545
619.2379	0.087975
619.9244	0.094518
620.6110	0.098318
621.2977	0.072797
621.9845	0.083858
622.6714	0.083288
623.3584	0.090909
624.0454	0.087194
624.7326	0.091669
625.4199	0.082908
626.1072	0.081199
626.7947	0.069187
627.4822	0.072438
628.1698	0.066063
628.8576	0.057683
629.5454	0.063783
630.2333	0.059709
630.9213	0.057725
631.6094	0.052026
632.2976	0.052131
632.9859	0.045841
633.6743	0.045883
634.3628	0.043012
635.0514	0.041534
635.7400	0.040458
636.4288	0.046242
637.1177	0.042273
637.8066	0.040120
638.4957	0.042062
639.1848	0.041281
639.8740	0.039687
640.5633	0.035080
641.2528	0.033228
641.9423	0.033171
642.6319	0.030626
643.3216	0.030997
644.0113	0.028850
644.7012	0.028671
645.3912	0.026507
646.0812	0.025398
646.7714	0.026658
647.4616	0.023739
648.1520	0.028009
648.8424	0.034011
649.5329	0.033954
650.2236	0.030417
650.9143	0.028910
651.6051	0.031617
652.2960	0.031109
652.9870	0.031531
653.6780	0.034641
654.3692	0.034404
655.0605	0.068258
655.7518	0.953508
656.4433	1.000000
657.1348	0.866216
657.8264	0.533968
658.5181	0.410355
659.2099	0.328470
659.9018	0.098360
660.5938	0.031531
661.2859	0.024764
661.9781	0.023576
662.6704	0.023283
663.3627	0.022474
664.0552	0.023768
664.7477	0.020186
665.4403	0.023056
666.1330	0.025988
666.8259	0.021257
667.5188	0.021861
668.2117	0.019549
668.9048	0.023043
669.5980	0.021143
670.2913	0.022114
670.9846	0.022557
671.6781	0.029101
672.3716	0.035666
673.0652	0.033618
673.7589	0.031085
674.4527	0.026610
675.1466	0.026821
675.8406	0.025069
676.5347	0.025069
677.2288	0.023676
677.9231	0.027687
678.6174	0.031148
679.3119	0.032711
680.0064	0.036384
680.7010	0.036510
681.3957	0.038093
682.0905	0.033555
682.7854	0.029270
683.4803	0.030304
684.1754	0.034843
684.8705	0.039888
685.5658	0.043898
686.2611	0.045756
686.9565	0.044067
687.6520	0.044004
688.3476	0.040415
689.0433	0.038262
689.7390	0.037798
690.4349	0.033133
691.1308	0.037925
691.8269	0.037291
692.5230	0.038853
693.2192	0.038452
693.9155	0.037312
694.6119	0.032647
695.3083	0.037165
696.0049	0.030389
696.7016	0.035560
697.3983	0.040057
698.0951	0.038853
698.7920	0.038811
699.4890	0.033238
700.1861	0.031824
700.8833	0.031951
701.5806	0.028172
702.2779	0.030283
702.9753	0.028805
703.6729	0.028953
704.3705	0.027644
705.0682	0.026230
705.7660	0.023169
706.4638	0.030811
707.1618	0.037207
707.8599	0.036679
708.5580	0.038473
709.2562	0.035117
709.9545	0.033365
710.6529	0.036742
711.3514	0.031022
712.0500	0.029375
712.7486	0.030325
713.4474	0.030642
714.1462	0.032626
714.8451	0.033872
715.5441	0.035096
716.2432	0.030283
716.9424	0.028446
717.6416	0.027497
718.3410	0.029460
719.0404	0.028573
719.7399	0.028932
720.4395	0.027665
721.1392	0.029396
721.8390	0.029460
722.5388	0.028932
723.2388	0.028088
723.9388	0.028172
724.6389	0.026082
725.3391	0.032225
726.0394	0.033829
726.7398	0.032478
727.4403	0.030916
728.1408	0.034526
728.8414	0.034125
729.5421	0.037967
730.2429	0.035518
730.9438	0.044363
731.6448	0.044490
732.3458	0.042210
733.0470	0.044701
733.7482	0.045355
734.4495	0.052089
735.1509	0.048648
735.8524	0.049450
736.5539	0.050252
737.2556	0.047909
737.9573	0.045503
738.6591	0.041133
739.3610	0.046854
740.0630	0.044743
740.7651	0.041112
741.4672	0.034209
742.1695	0.034779
742.8718	0.032352
743.5742	0.030304
744.2767	0.029755
744.9792	0.029080
745.6819	0.029819
746.3846	0.029460
747.0874	0.029016
747.7903	0.033555
748.4933	0.028024
749.1964	0.033428
749.8995	0.039254
750.6028	0.040901
751.3061	0.040774
752.0095	0.040838
752.7130	0.037840
753.4166	0.036975
754.1202	0.042632
754.8239	0.040183
755.5278	0.043202
756.2317	0.046157
756.9356	0.050442
757.6397	0.059773
758.3438	0.057683
759.0481	0.054158
759.7524	0.060723
760.4568	0.064459
761.1613	0.062306
761.8658	0.052152
762.5705	0.049028
763.2752	0.051181
763.9800	0.052110
764.6849	0.059055
765.3898	0.058422
766.0949	0.051709
766.8000	0.041386
767.5052	0.037608
768.2105	0.043687
768.9159	0.050421
769.6214	0.045672
770.3269	0.046875
771.0325	0.049070
771.7382	0.046263
772.4440	0.040373
773.1499	0.037967
773.8558	0.038326
774.5618	0.032816
775.2679	0.032267
775.9741	0.027834
776.6804	0.025238
777.3868	0.025048
778.0932	0.025322
778.7997	0.027750
779.5063	0.031106
780.2130	0.029987
780.9197	0.028805
781.6265	0.036194
782.3335	0.036510
783.0405	0.033112
783.7475	0.036848
784.4547	0.028151
785.1619	0.029333
785.8692	0.029565
786.5766	0.028151
787.2841	0.027750
787.9917	0.027581
788.6993	0.031740
789.4070	0.030980
790.1148	0.028510
790.8227	0.024689
791.5306	0.022937
792.2387	0.022409
792.9468	0.022578
793.6550	0.024119
794.3632	0.032858
795.0716	0.034125
795.7800	0.029291
796.4885	0.022831
797.1971	0.021734
797.9058	0.024457
798.6145	0.023317
799.3233	0.024372
800.0322	0.019939
800.7412	0.018842
801.4503	0.018757
802.1594	0.017343
802.8686	0.017913
803.5779	0.019327
804.2873	0.016794
804.9968	0.017871
805.7063	0.018631
806.4159	0.024963
807.1256	0.024689
807.8354	0.022578
808.5452	0.022325
809.2551	0.023486
809.9651	0.018567
810.6752	0.017765
811.3853	0.019707
812.0956	0.017829
812.8059	0.014367
813.5163	0.015781
814.2267	0.019074
814.9373	0.017174
815.6479	0.015401
816.3586	0.013987
817.0694	0.014092
817.7802	0.015105
818.4912	0.014599
819.2022	0.013269
819.9133	0.011833
820.6244	0.014219
821.3357	0.015675
822.0470	0.014789
822.7584	0.012868
823.4698	0.012762
824.1814	0.011052
824.8930	0.011390
825.6047	0.014535
826.3165	0.013037
827.0283	0.012150
827.7402	0.013944
828.4522	0.012593
829.1643	0.013290
829.8765	0.013227
830.5887	0.010715
831.3010	0.008899
832.0134	0.007591
832.7259	0.009849
833.4384	0.008287
834.1510	0.009047
834.8637	0.011179
835.5765	0.010672
836.2893	0.008013
837.0022	0.009469
837.7152	0.005501
838.4283	0.008055
839.1414	0.006028
839.8546	0.007401
840.5679	0.007147
841.2813	0.007422
841.9947	0.005838
842.7082	0.005269
843.4218	0.003918
844.1355	0.004994
844.8492	0.005627
845.5631	0.005986
846.2770	0.004825
846.9909	0.006050
847.7050	0.006387
848.4191	0.005395
849.1333	0.004656
849.8475	0.004973
850.5619	0.004002
851.2763	0.004129
851.9908	0.004699
852.7053	0.008182
853.4200	0.013839
854.1347	0.012108
854.8495	0.014831
855.5643	0.012192
856.2792	0.011242
856.9942	0.013206
857.7093	0.012235
858.4245	0.010567
859.1397	0.009364
859.8550	0.007506
860.5704	0.008942
861.2858	0.006873
862.0013	0.005501
862.7169	0.006240
863.4326	0.006788
864.1483	0.007168
864.8642	0.005944
865.5800	0.005057
866.2960	0.005585
867.0120	0.005775
867.7281	0.005902
868.4443	0.007295
869.1606	0.005395
869.8769	0.005057
870.5933	0.004551
871.3097	0.006662
872.0263	0.005100
872.7429	0.006345
873.4596	0.004910
874.1763	0.006092
874.8932	0.005332
875.6101	0.006261
876.3270	0.005775
877.0441	0.006303
877.7612	0.006746
878.4784	0.006999
879.1957	0.007358
879.9130	0.007844
880.6304	0.008118
881.3479	0.007591
882.0654	0.006071
882.7831	0.006451
883.5007	0.006978
884.2185	0.005184
884.9363	0.005712
885.6542	0.006303
886.3722	0.006598
887.0903	0.005163
887.8084	0.006197
888.5266	0.005733
889.2448	0.004973
889.9632	0.004783
890.6816	0.004656
891.4001	0.004762
892.1186	0.005269
892.8372	0.004340
893.5559	0.007147
894.2747	0.003580
894.9935	0.004466
895.7124	0.004635
896.4314	0.006620
897.1504	0.003643
897.8695	0.004466
898.5887	0.005670
899.3079	0.004593
900.0272	0.004213
900.7466	0.005079
901.4661	0.004572
902.1856	0.005416
902.9052	0.004361
903.6249	0.004530
904.3446	0.005142
905.0644	0.004783
905.7843	0.004677
906.5043	0.004635
907.2243	0.003643
907.9444	0.004867
908.6645	0.004361
909.3847	0.003474
910.1050	0.003728
910.8254	0.003158
911.5458	0.004867
912.2663	0.004023
912.9869	0.004340
913.7075	0.003854
914.4283	0.003348
915.1490	0.004297
915.8699	0.002735
916.5908	0.003918
917.3118	0.003242
918.0328	0.003221
918.7539	0.003242
919.4751	0.003221
920.1964	0.003580
920.9177	0.003284
921.6391	0.004466
922.3606	0.002735
923.0821	0.004445
923.8037	0.003305
924.5254	0.002208
925.2471	0.003516
925.9689	0.001194
926.6908	0.001954
927.4127	0.002567
928.1347	0.002925
928.8568	0.001997
929.5789	0.001997
930.3011	0.002588
931.0234	0.002567
931.7457	0.001764
932.4681	0.002904
933.1906	0.002883
933.9131	0.002841
934.6358	0.002693
935.3584	0.002165
936.0812	0.001237
936.8040	0.001891
937.5269	0.001194
938.2498	0.000962
938.9728	0.002292
939.6959	0.001764
940.4190	0.001004
941.1422	0.001300
941.8655	0.001764
942.5889	0.001258
943.3123	0.001617
944.0357	0.001152
944.7593	0.001807
945.4829	0.001384
946.2066	0.002165
946.9303	0.001089
947.6541	0.002250
948.3780	0.001469
949.1019	0.002524
949.8259	0.000266
950.5500	0.001975
951.2741	0.000308
951.9983	0.002081
952.7226	0.000920
953.4469	0.002883
954.1713	0.001870
954.8958	0.001216
955.6203	0.000350
956.3449	0.001849
957.0696	0.000498
957.7943	0.001659
958.5191	0.000624
959.2439	0.001764
959.9688	0.000076
960.6938	0.000561
961.4189	0.000540
962.1440	0.000160
962.8692	0.001596
963.5944	0.001912
964.3197	0.001954
965.0451	0.000603
965.7705	0.001469
966.4960	0.002862
967.2216	0.001237
967.9472	0.001701
968.6729	0.000266
969.3987	0.000793
970.1245	-0.000431
970.8504	0.001764
971.5763	0.000519
972.3023	0.000223
973.0284	0.000139
973.7545	0.000983
974.4807	0.000350
975.2070	0.000878
975.9333	-0.000347
976.6597	0.000751
977.3862	0.001511
978.1127	0.001511
978.8393	-0.000093
979.5659	0.000646
980.2926	-0.000072
981.0194	-0.000030
981.7462	0.000266
982.4731	-0.000537
983.2001	0.000434
983.9271	0.001912
984.6542	0.001342
985.3814	0.000456
986.1086	-0.000199
986.8358	0.000730
987.5632	0.000941
988.2906	0.000688
989.0180	0.001279
989.7456	-0.000347
990.4732	0.000097
991.2008	0.000118
991.9285	0.000413
992.6563	0.000582
993.3841	-0.000220
994.1120	0.001004
994.8400	-0.000389
995.5680	0.000413
996.2961	-0.001233
997.0242	0.001110
997.7524	-0.000600
998.4807	0.000772
999.2090	0.000223
999.9374	0.000646
1000.67	0.000667
1001.39	0.000287
1002.12	0.001807
1002.85	0.001237
1003.58	0.000667
1004.31	-0.000304
1005.04	0.000076
1005.77	0.000456
1006.5	-0.000009
1007.22	0.001089
1007.95	0.000878
1008.68	-0.001128
1009.41	0.001384
1010.14	0.000434
1010.87	0.001047
1011.6	0.000076
1012.33	0.001047
1013.06	0.000667
1013.79	0.000624
1014.52	0.000793
1015.25	-0.000621
1015.98	0.001089
1016.71	0.000287
1017.44	0.001004
1018.17	0.000181
1018.9	0.001933
1019.63	-0.000178
1020.36	-0.000537
1021.09	-0.000157
1021.82	0.000223
1022.55	0.000202
1023.03	-0.000790