File: Auto_Polymerization/Spectra/spectrum_2025-06-19_12-40-13.txt
# Wavelength (nm)	Intensity (a.u.)
197.7802	-0.000121
198.3922	0.000069
199.0044	0.000850
199.6168	-0.000649
200.2292	0.000132
200.8418	-0.000649
201.4546	-0.000164
202.0674	0.000533
202.6805	0.000195
203.2936	-0.000058
203.9069	0.000047
204.5203	0.000681
205.1338	0.000427
205.7475	-0.000375
206.3614	0.001821
206.9753	0.001251
207.5894	0.001652
208.2036	0.000765
208.8180	0.000343
209.4325	0.001251
210.0471	0.001082
210.6618	0.000470
211.2767	0.001673
211.8918	-0.000501
212.5069	0.000132
213.1222	-0.000839
213.7376	0.001019
214.3532	-0.000459
214.9689	0.000575
215.5847	0.000406
216.2007	-0.000248
216.8168	-0.000142
217.4330	-0.000142
218.0494	-0.001092
218.6659	-0.000058
219.2825	0.000259
219.8992	0.000871
220.5161	0.001356
221.1332	0.000660
221.7503	0.000259
222.3676	0.001293
222.9850	0.000639
223.6026	0.003024
224.2203	0.000322
224.8381	0.000596
225.4561	-0.000522
226.0742	0.000850
226.6924	0.000723
227.3107	0.000723
227.9292	-0.000438
228.5478	0.000195
229.1666	-0.000332
229.7855	-0.000185
230.4045	-0.000037
231.0236	0.000005
231.6429	0.000575
232.2623	0.000934
232.8818	-0.000142
233.5015	0.001124
234.1213	-0.000417
234.7413	0.000596
235.3613	0.000259
235.9815	0.000364
236.6018	0.000259
237.2223	0.001124
237.8429	-0.001768
238.4636	-0.000206
239.0845	0.002201
239.7055	0.000934
240.3266	0.001821
240.9478	0.000829
241.5692	0.000026
242.1907	0.001926
242.8124	0.000892
243.4341	0.000111
244.0560	0.001040
244.6781	0.000280
245.3002	0.000301
245.9225	0.000280
246.5449	-0.000776
247.1675	0.000913
247.7902	-0.000438
248.4130	0.000195
249.0359	0.000660
249.6590	0.000997
250.2822	0.000069
250.9056	0.000913
251.5290	-0.000860
252.1526	0.000955
252.7763	0.001166
253.4002	0.000343
254.0242	0.001019
254.6483	0.001061
255.2725	0.000723
255.8969	0.000765
256.5214	-0.000332
257.1460	0.001356
257.7708	-0.000206
258.3957	0.000090
259.0207	0.001588
259.6459	-0.000375
260.2711	0.000491
260.8965	0.000976
261.5221	0.000913
262.1477	0.000470
262.7735	0.001356
263.3995	-0.000290
264.0255	0.000237
264.6517	0.000470
265.2780	0.000512
265.9044	0.000744
266.5310	-0.000987
267.1577	0.000850
267.7845	0.000301
268.4114	0.001082
269.0385	-0.000459
269.6657	0.000850
270.2931	0.000660
270.9205	0.000786
271.5481	-0.000691
272.1758	0.000449
272.8037	0.001272
273.4316	0.001525
274.0597	0.000575
274.6880	0.000554
275.3163	0.000744
275.9448	0.001019
276.5734	-0.001071
277.2022	0.000681
277.8310	0.000069
278.4600	0.000111
279.0891	0.000660
279.7184	0.001504
280.3477	-0.000164
280.9772	0.001462
281.6069	0.000449
282.2366	0.001525
282.8665	-0.000691
283.4965	0.000871
284.1266	0.000005
284.7569	0.001567
285.3873	-0.000079
286.0178	-0.000269
286.6484	-0.000396
287.2792	0.001567
287.9101	0.000132
288.5411	0.000364
289.1723	0.000639
289.8035	0.000639
290.4349	0.000427
291.0665	-0.000670
291.6981	0.001546
292.3299	-0.000607
292.9618	0.001082
293.5938	-0.001029
294.2260	0.001272
294.8582	-0.000354
295.4906	0.000385
296.1232	0.001145
296.7558	0.001694
297.3886	-0.000607
298.0215	0.000786
298.6545	0.001525
299.2877	-0.001092
299.9210	0.000997
300.5544	0.000385
301.1879	-0.000227
301.8215	0.000575
302.4553	0.001546
303.0892	-0.000269
303.7233	0.000850
304.3574	0.001610
304.9917	0.001040
305.6261	-0.000185
306.2606	0.001124
306.8953	0.000026
307.5301	0.001230
308.1650	-0.000164
308.8000	0.001314
309.4351	0.000575
310.0704	0.001082
310.7058	0.000997
311.3413	0.000660
311.9770	-0.001092
312.6127	0.000681
313.2486	-0.001240
313.8846	0.000892
314.5208	0.000153
315.1570	0.000132
315.7934	-0.000628
316.4299	0.001420
317.0666	-0.000691
317.7033	0.000955
318.3402	0.000005
318.9772	0.000364
319.6143	0.001061
320.2516	0.001863
320.8890	0.001631
321.5265	0.001757
322.1641	0.000026
322.8018	0.000069
323.4397	0.000512
324.0777	0.000765
324.7158	0.001800
325.3540	-0.000332
325.9924	0.001420
326.6308	0.000871
327.2694	-0.000185
327.9082	0.001567
328.5470	-0.000607
329.1860	0.000153
329.8251	0.000301
330.4643	0.001335
331.1036	0.000765
331.7431	0.002011
332.3826	-0.000649
333.0223	0.000617
333.6622	-0.001219
334.3021	0.000132
334.9422	0.000892
335.5823	0.000617
336.2227	0.000090
336.8631	0.000871
337.5036	0.000681
338.1443	0.002306
338.7851	0.001145
339.4260	0.000533
340.0670	0.000892
340.7082	0.000913
341.3495	0.000491
341.9909	-0.000121
342.6324	0.000195
343.2740	0.001968
343.9158	-0.000269
344.5577	0.001377
345.1997	0.000892
345.8418	0.002686
346.4840	-0.000121
347.1264	-0.000417
347.7689	-0.000417
348.4115	-0.000586
349.0542	0.000976
349.6971	0.001251
350.3400	-0.000881
350.9831	0.000005
351.6263	-0.000776
352.2696	-0.000522
352.9131	-0.000311
353.5566	-0.000375
354.2003	0.000090
354.8441	0.002475
355.4881	-0.000016
356.1321	0.000871
356.7763	0.000343
357.4206	0.000660
358.0650	0.000153
358.7095	0.000491
359.3541	-0.000522
359.9989	0.000575
360.6438	-0.000354
361.2888	0.000237
361.9339	0.000153
362.5791	0.001736
363.2245	-0.000206
363.8699	0.000111
364.5155	-0.001029
365.1612	0.001251
365.8071	0.000660
366.4530	0.000090
367.0991	0.001293
367.7453	-0.000142
368.3916	0.001757
369.0380	0.000702
369.6845	-0.000396
370.3312	0.000723
370.9780	0.000174
371.6249	0.000153
372.2719	0.000111
372.9190	0.000913
373.5663	-0.000269
374.2136	-0.000712
374.8611	0.001968
375.5087	0.000047
376.1564	0.000470
376.8043	0.000997
377.4522	0.001209
378.1003	0.001778
378.7485	-0.001092
379.3968	-0.000375
380.0452	0.000533
380.6938	0.000554
381.3424	-0.000734
381.9912	0.000132
382.6401	-0.000206
383.2891	-0.000522
383.9382	0.000237
384.5875	0.001019
385.2368	0.001335
385.8863	0.001209
386.5359	-0.000185
387.1856	0.001673
387.8355	0.001166
388.4854	-0.000755
389.1355	0.000322
389.7856	0.001588
390.4359	0.000596
391.0863	0.001778
391.7369	0.000512
392.3875	0.001019
393.0383	0.000596
393.6891	0.002876
394.3401	0.003721
394.9912	0.001947
395.6425	0.003383
396.2938	0.002602
396.9453	0.003066
397.5968	0.004290
398.2485	0.003847
398.9003	0.004396
399.5522	0.004523
400.2043	0.003868
400.8564	0.003193
401.5087	0.004903
402.1610	0.005050
402.8135	0.004692
403.4661	0.006549
404.1189	0.007372
404.7717	0.008618
405.4246	0.007140
406.0777	0.006739
406.7309	0.006570
407.3842	0.006465
408.0376	0.007985
408.6911	0.007647
409.3448	0.007647
409.9985	0.007541
410.6524	0.009103
411.3064	0.008977
411.9605	0.009462
412.6147	0.009631
413.2690	0.009357
413.9234	0.010391
414.5780	0.009779
415.2326	0.010813
415.8874	0.012375
416.5423	0.012354
417.1973	0.012966
417.8524	0.013030
418.5077	0.013178
419.1630	0.013241
419.8185	0.013304
420.4741	0.015605
421.1298	0.016112
421.7856	0.017969
422.4415	0.016956
423.0975	0.017737
423.7536	0.015964
424.4099	0.016281
425.0663	0.014761
425.7228	0.017083
426.3793	0.016661
427.0361	0.017885
427.6929	0.018012
428.3498	0.018265
429.0068	0.018455
429.6640	0.020460
430.3213	0.020481
430.9787	0.021347
431.6362	0.020439
432.2938	0.017188
432.9515	0.017231
433.6093	0.018392
434.2673	0.021262
434.9253	0.019025
435.5835	0.019278
436.2418	0.022360
436.9001	0.021727
437.5586	0.019954
438.2173	0.021706
438.8760	0.021600
439.5348	0.021854
440.1938	0.020882
440.8528	0.021474
441.5120	0.026371
442.1713	0.024661
442.8307	0.024703
443.4902	0.026286
444.1498	0.024323
444.8095	0.024049
445.4694	0.023901
446.1293	0.023479
446.7894	0.022001
447.4496	0.020207
448.1098	0.022149
448.7702	0.022592
449.4307	0.020946
450.0914	0.020840
450.7521	0.020650
451.4129	0.017041
452.0739	0.019278
452.7349	0.019679
453.3961	0.018603
454.0574	0.018582
454.7188	0.017547
455.3803	0.018392
456.0419	0.018476
456.7036	0.016893
457.3654	0.016323
458.0274	0.017653
458.6894	0.019721
459.3516	0.015922
460.0138	0.018075
460.6762	0.015162
461.3387	0.016555
462.0013	0.014592
462.6640	0.014022
463.3268	0.014275
463.9897	0.014085
464.6528	0.016956
465.3159	0.013916
465.9792	0.014423
466.6425	0.012101
467.3060	0.011383
467.9696	0.012439
468.6333	0.012819
469.2970	0.009694
469.9610	0.009863
470.6250	0.008829
471.2891	0.009842
471.9533	0.009019
472.6177	0.009420
473.2821	0.008702
473.9467	0.008808
474.6113	0.006613
475.2761	0.008977
475.9410	0.008069
476.6060	0.009969
477.2711	0.007562
477.9363	0.008449
478.6016	0.006781
479.2670	0.006803
479.9325	0.006254
480.5982	0.007267
481.2639	0.005726
481.9298	0.005810
482.5957	0.007541
483.2618	0.007288
483.9280	0.006233
484.5943	0.008006
485.2606	0.006486
485.9271	0.018539
486.5937	0.013494
487.2605	0.008702
487.9273	0.007119
488.5942	0.005452
489.2612	0.004839
489.9284	0.005029
490.5956	0.004607
491.2630	0.004523
491.9304	0.003172
492.5980	0.004248
493.2657	0.003594
493.9334	0.004797
494.6013	0.004776
495.2693	0.003721
495.9374	0.003763
496.6056	0.004122
497.2739	0.002095
497.9423	0.004269
498.6109	0.002285
499.2795	0.004649
499.9482	0.004248
500.6171	0.003573
501.2860	0.003974
501.9551	0.003742
502.6242	0.005114
503.2935	0.002581
503.9628	0.002728
504.6323	0.003636
505.3019	0.002897
505.9716	0.002623
506.6414	0.002517
507.3113	0.003594
507.9813	0.003404
508.6514	0.004016
509.3216	0.003298
509.9919	0.003953
510.6623	0.001736
511.3329	0.004924
512.0035	0.003235
512.6742	0.004312
513.3451	0.003024
514.0160	0.002728
514.6871	0.002792
515.3582	0.003172
516.0295	0.002327
516.7008	0.002644
517.3723	0.002728
518.0439	0.004459
518.7155	0.003615
519.3873	0.001335
520.0592	0.004565
520.7312	0.003552
521.4033	0.003995
522.0755	0.003889
522.7478	0.003341
523.4202	0.002939
524.0927	0.003974
524.7653	0.004523
525.4380	0.003425
526.1108	0.003742
526.7837	0.004058
527.4568	0.004290
528.1299	0.004248
528.8031	0.003657
529.4765	0.005515
530.1499	0.004818
530.8234	0.006401
531.4971	0.004903
532.1708	0.005494
532.8447	0.004459
533.5186	0.006950
534.1927	0.007035
534.8668	0.007351
535.5411	0.007267
536.2155	0.008512
536.8899	0.007457
537.5645	0.008702
538.2392	0.008449
538.9139	0.009884
539.5888	0.008512
540.2638	0.009568
540.9389	0.010180
541.6140	0.010412
542.2893	0.011172
542.9647	0.011425
543.6402	0.012713
544.3158	0.013494
544.9915	0.014634
545.6673	0.013811
546.3432	0.014550
547.0192	0.015816
547.6953	0.017927
548.3715	0.019341
549.0478	0.017188
549.7242	0.016998
550.4007	0.017526
551.0773	0.016914
551.7540	0.017632
552.4308	0.021516
553.1077	0.022888
553.7847	0.022360
554.4618	0.021685
555.1390	0.022065
555.8163	0.023732
556.4937	0.024640
557.1712	0.023183
557.8488	0.026350
558.5266	0.024007
559.2044	0.024133
559.8823	0.024999
560.5603	0.029917
561.2384	0.031923
561.9166	0.030719
562.5949	0.032303
563.2733	0.032324
563.9519	0.034794
564.6305	0.036630
565.3092	0.038572
565.9880	0.038002
566.6669	0.040282
567.3459	0.046340
568.0250	0.053834
568.7043	0.061539
569.3836	0.072495
570.0630	0.093921
570.7425	0.097636
571.4221	0.115769
572.1018	0.132678
572.7816	0.114524
573.4615	0.131580
574.1415	0.149671
574.8216	0.164828
575.5018	0.168479
576.1821	0.149185
576.8626	0.173018
577.5431	0.181420
578.2237	0.228916
578.9044	0.193937
579.5851	0.193600
580.2660	0.197843
580.9470	0.202254
581.6281	0.302862
582.3093	0.290386
582.9906	0.228050
583.6720	0.190940
584.3535	0.191088
585.0351	0.221084
585.7167	0.222498
586.3985	0.196154
587.0804	0.205041
587.7624	0.216630
588.4445	0.194972
589.1266	0.169113
589.8089	0.161914
590.4913	0.147117
591.1737	0.131158
591.8563	0.124466
592.5389	0.147243
593.2217	0.190581
593.9046	0.185261
594.5875	0.163392
595.2705	0.192080
595.9537	0.171203
596.6369	0.141122
597.3203	0.146209
598.0037	0.141438
598.6872	0.153323
599.3709	0.180111
600.0546	0.175657
600.7384	0.175636
601.4223	0.180153
602.1064	0.162569
602.7905	0.166791
603.4747	0.182158
604.1590	0.172659
604.8434	0.151128
605.5279	0.162674
606.2125	0.168817
606.8972	0.155962
607.5819	0.152732
608.2668	0.147159
608.9518	0.138483
609.6369	0.127591
610.3220	0.147539
611.0073	0.137259
611.6927	0.135612
612.3781	0.125838
613.0637	0.130081
613.7493	0.127675
614.4351	0.124973
615.1209	0.122144
615.8068	0.127105
616.4929	0.114249
617.1790	0.106967
617.8652	0.113722
618.5515	0.099874
619.2379	0.087145
619.9244	0.093203
620.6110	0.092443
621.2977	0.072938
621.9845	0.079356
622.6714	0.082860
623.3584	0.088390
624.0454	0.082817
624.7326	0.086702
625.4199	0.083050
626.1072	0.076041
626.7947	0.069096
627.4822	0.066922
628.1698	0.063777
628.8576	0.057001
629.5454	0.062595
630.2333	0.058626
630.9213	0.056578
631.6094	0.050668
632.2976	0.050246
632.9859	0.044567
633.6743	0.044082
634.3628	0.041971
635.0514	0.041021
635.7400	0.040662
636.4288	0.044778
637.1177	0.042900
637.8066	0.039775
638.4957	0.041295
639.1848	0.039860
639.8740	0.037808
640.5633	0.037797
641.2528	0.036498
641.9423	0.030003
642.6319	0.030345
643.3216	0.029932
644.0113	0.028284
644.7012	0.027258
645.3912	0.025403
646.0812	0.025368
646.7714	0.024762
647.4616	0.025774
648.1520	0.027651
648.8424	0.032500
649.5329	0.031721
650.2236	0.029800
650.9143	0.029498
651.6051	0.029958
652.2960	0.029665
652.9870	0.032547
653.6780	0.033734
654.3692	0.034821
655.0605	0.064304
655.7518	0.938404
656.4433	1.000000
657.1348	0.856168
657.8264	0.528436
658.5181	0.406393
659.2099	0.327063
659.9018	0.096534
660.5938	0.032368
661.2859	0.025117
661.9781	0.022680
662.6704	0.021726
663.3627	0.021181
664.0552	0.019382
664.7477	0.023244
665.4403	0.024050
666.1330	0.022726
666.8259	0.021102
667.5188	0.022507
668.2117	0.020086
668.9048	0.021537
669.5980	0.021410
670.2913	0.019954
670.9846	0.021706
671.6781	0.027764
672.3716	0.031627
673.0652	0.032324
673.7589	0.027996
674.4527	0.028651
675.1466	0.026941
675.8406	0.025928
676.5347	0.023711
677.2288	0.024513
677.9231	0.028250
678.6174	0.030783
679.3119	0.032957
680.0064	0.035131
680.7010	0.033337
681.3957	0.034245
682.0905	0.033126
682.7854	0.030719
683.4803	0.031522
684.1754	0.031226
684.8705	0.039353
685.5658	0.042245
686.2611	0.044419
686.9565	0.044588
687.6520	0.044039
688.3476	0.038446
689.0433	0.035659
689.7390	0.034709
690.4349	0.034456
691.1308	0.037327
691.8269	0.037833
692.5230	0.038551
693.2192	0.039142
693.9155	0.036525
694.6119	0.035870
695.3083	0.034751
696.0049	0.030931
696.7016	0.036715
697.3983	0.040409
698.0951	0.039670
698.7920	0.038910
699.4890	0.035638
700.1861	0.030973
700.8833	0.029854
701.5806	0.027637
702.2779	0.028988
702.9753	0.030339
703.6729	0.028207
704.3705	0.028229
705.0682	0.025400
705.7660	0.023078
706.4638	0.030128
707.1618	0.036715
707.8599	0.037116
708.5580	0.038699
709.2562	0.031163
709.9545	0.036335
710.6529	0.035279
711.3514	0.033168
712.0500	0.026899
712.7486	0.028503
713.4474	0.030128
714.1462	0.035448
714.8451	0.034224
715.5441	0.033590
716.2432	0.031142
716.9424	0.029643
717.6416	0.027954
718.3410	0.028292
719.0404	0.029010
719.7399	0.031754
720.4395	0.029706
721.1392	0.029685
721.8390	0.028440
722.5388	0.028841
723.2388	0.027490
723.9388	0.027173
724.6389	0.025970
725.3391	0.031902
726.0394	0.032070
726.7398	0.032873
727.4403	0.030846
728.1408	0.035195
728.8414	0.033569
729.5421	0.037242
730.2429	0.035891
730.9438	0.043090
731.6448	0.041739
732.3458	0.039353
733.0470	0.044863
733.7482	0.045855
734.4495	0.052927
735.1509	0.047797
735.8524	0.046129
736.5539	0.047797
737.2556	0.047649
737.9573	0.043934
738.6591	0.041105
739.3610	0.045918
740.0630	0.042752
740.7651	0.037538
741.4672	0.033020
742.1695	0.033886
742.8718	0.034139
743.5742	0.030508
744.2767	0.029960
744.9792	0.030023
745.6819	0.029474
746.3846	0.028123
747.0874	0.029305
747.7903	0.030487
748.4933	0.029347
749.1964	0.031416
749.8995	0.037095
750.6028	0.038108
751.3061	0.038614
752.0095	0.038678
752.7130	0.036461
753.4166	0.034667
754.1202	0.039607
754.8239	0.041907
755.5278	0.043068
756.2317	0.044335
756.9356	0.050119
757.6397	0.059492
758.3438	0.057908
759.0481	0.053117
759.7524	0.060104
760.4568	0.062721
761.1613	0.064305
761.8658	0.055227
762.5705	0.048662
763.2752	0.048494
763.9800	0.049718
764.6849	0.054636
765.3898	0.058457
766.0949	0.050140
766.8000	0.041337
767.5052	0.038382
768.2105	0.044061
768.9159	0.048093
769.6214	0.046467
770.3269	0.044145
771.0325	0.048515
771.7382	0.044736
772.4440	0.039628
773.1499	0.039670
773.8558	0.038889
774.5618	0.034435
775.2679	0.030487
775.9741	0.026329
776.6804	0.024176
777.3868	0.022466
778.0932	0.023774
778.7997	0.028714
779.5063	0.029727
780.2130	0.028292
780.9197	0.030107
781.6265	0.033865
782.3335	0.033949
783.0405	0.032282
783.7475	0.033696
784.4547	0.029432
785.1619	0.028883
785.8692	0.029347
786.5766	0.029115
787.2841	0.027110
787.9917	0.029706
788.6993	0.031648
789.4070	0.030909
790.1148	0.025695
790.8227	0.023289
791.5306	0.023732
792.2387	0.022043
792.9468	0.021621
793.6550	0.022022
794.3632	0.034392
795.0716	0.031416
795.7800	0.028060
796.4885	0.023205
797.1971	0.020714
797.9058	0.022128
798.6145	0.021769
799.3233	0.021769
800.0322	0.021030
800.7412	0.020228
801.4503	0.018096
802.1594	0.017568
802.8686	0.015014
803.5779	0.017906
804.2873	0.017252
804.9968	0.015901
805.7063	0.016998
806.4159	0.024281
807.1256	0.023732
807.8354	0.022719
808.5452	0.022972
809.2551	0.020777
809.9651	0.020503
810.6752	0.018497
811.3853	0.019067
812.0956	0.018518
812.8059	0.013346
813.5163	0.018645
814.2267	0.020017
814.9373	0.017906
815.6479	0.015310
816.3586	0.014887
817.0694	0.015711
817.7802	0.014212
818.4912	0.013283
819.2022	0.012460
819.9133	0.013304
820.6244	0.015901
821.3357	0.013705
822.0470	0.012882
822.7584	0.012101
823.4698	0.011214
824.1814	0.011193
824.8930	0.012228
825.6047	0.013790
826.3165	0.013093
827.0283	0.012460
827.7402	0.014191
828.4522	0.011721
829.1643	0.013747
829.8765	0.012291
830.5887	0.009737
831.3010	0.008090
832.0134	0.006486
832.7259	0.009863
833.4384	0.009505
834.1510	0.012354
834.8637	0.009610
835.5765	0.009716
836.2893	0.009167
837.0022	0.007330
837.7152	0.008048
838.4283	0.006718
839.1414	0.006401
839.8546	0.007774
840.5679	0.007014
841.2813	0.008280
841.9947	0.005599
842.7082	0.006148
843.4218	0.004628
844.1355	0.004502
844.8492	0.007330
845.5631	0.006043
846.2770	0.005494
846.9909	0.005388
847.7050	0.006064
848.4191	0.005008
849.1333	0.005072
849.8475	0.004987
850.5619	0.004628
851.2763	0.005536
851.9908	0.005198
852.7053	0.010581
853.4200	0.014909
854.1347	0.012544
854.8495	0.013410
855.5643	0.012122
856.2792	0.012312
856.9942	0.012734
857.7093	0.009209
858.4245	0.011341
859.1397	0.009716
859.8550	0.008702
860.5704	0.007605
861.2858	0.008048
862.0013	0.006296
862.7169	0.007394
863.4326	0.006507
864.1483	0.007964
864.8642	0.005219
865.5800	0.006064
866.2960	0.005262
867.0120	0.005409
867.7281	0.005409
868.4443	0.006169
869.1606	0.005958
869.8769	0.004227
870.5933	0.004692
871.3097	0.005874
872.0263	0.005240
872.7429	0.004586
873.4596	0.004375
874.1763	0.004755
874.8932	0.005177
875.6101	0.005367
876.3270	0.006000
877.0441	0.006887
877.7612	0.007098
878.4784	0.007372
879.1957	0.006507
879.9130	0.009378
880.6304	0.008470
881.3479	0.006528
882.0654	0.006866
882.7831	0.005789
883.5007	0.006803
884.2185	0.006845
884.9363	0.005262
885.6542	0.007161
886.3722	0.007161
887.0903	0.006064
887.8084	0.006992
888.5266	0.005831
889.2448	0.006127
889.9632	0.005599
890.6816	0.005895
891.4001	0.004122
892.1186	0.006507
892.8372	0.003721
893.5559	0.005346
894.2747	0.004016
894.9935	0.004375
895.7124	0.004607
896.4314	0.003024
897.1504	0.006169
897.8695	0.004375
898.5887	0.006444
899.3079	0.004544
900.0272	0.005367
900.7466	0.004565
901.4661	0.004459
902.1856	0.005747
902.9052	0.002834
903.6249	0.003805
904.3446	0.005240
905.0644	0.003699
905.7843	0.004290
906.5043	0.005473
907.2243	0.004628
907.9444	0.005304
908.6645	0.003678
909.3847	0.003932
910.1050	0.004713
910.8254	0.003383
911.5458	0.004818
912.2663	0.005072
912.9869	0.003003
913.7075	0.004924
914.4283	0.003319
915.1490	0.002834
915.8699	0.002939
916.5908	0.004375
917.3118	0.003636
918.0328	0.005156
918.7539	0.003235
919.4751	0.003531
920.1964	0.003826
920.9177	0.004101
921.6391	0.004016
922.3606	0.002961
923.0821	0.003889
923.8037	0.004438
924.5254	0.003699
925.2471	0.003889
925.9689	0.002961
926.6908	0.001968
927.4127	0.003151
928.1347	0.002475
928.8568	0.002538
929.5789	0.001610
930.3011	0.003193
931.0234	0.002116
931.7457	0.002855
932.4681	0.000850
933.1906	0.003045
933.9131	0.004375
934.6358	0.002158
935.3584	0.004438
936.0812	0.001947
936.8040	0.002771
937.5269	0.001525
938.2498	0.000512
938.9728	0.001968
939.6959	0.000470
940.4190	0.002158
941.1422	0.001187
941.8655	0.003319
942.5889	0.002264
943.3123	0.000786
944.0357	0.000427
944.7593	-0.000354
945.4829	0.002602
946.2066	0.002707
946.9303	0.000301
947.6541	0.001715
948.3780	0.002285
949.1019	0.001462
949.8259	0.001863
950.5500	0.002939
951.2741	0.001842
951.9983	0.001926
952.7226	0.001631
953.4469	0.001800
954.1713	0.002053
954.8958	0.000533
955.6203	0.000807
956.3449	0.002475
957.0696	0.001525
957.7943	0.001441
958.5191	0.001588
959.2439	0.001588
959.9688	0.000913
960.6938	0.000955
961.4189	0.001251
962.1440	0.000871
962.8692	0.000892
963.5944	0.000934
964.3197	0.000955
965.0451	0.002412
965.7705	0.000997
966.4960	0.000364
967.2216	0.001103
967.9472	0.002285
968.6729	0.000723
969.3987	0.002939
970.1245	0.000385
970.8504	0.000976
971.5763	0.000026
972.3023	0.001420
973.0284	0.002517
973.7545	0.001483
974.4807	0.000934
975.2070	0.001145
975.9333	-0.000121
976.6597	0.001166
977.3862	0.001356
978.1127	0.001842
978.8393	0.000575
979.5659	0.001335
980.2926	0.000723
981.0194	0.002095
981.7462	0.000005
982.4731	0.002433
983.2001	-0.000311
983.9271	0.000153
984.6542	0.001082
985.3814	0.001166
986.1086	-0.000269
986.8358	0.001124
987.5632	-0.000565
988.2906	0.000702
989.0180	0.000343
989.7456	-0.000079
990.4732	0.000026
991.2008	0.000090
991.9285	0.000385
992.6563	0.001926
993.3841	0.001061
994.1120	0.000090
994.8400	-0.000164
995.5680	0.000216
996.2961	0.000533
997.0242	-0.000142
997.7524	0.000132
998.4807	0.001947
999.2090	0.001251
999.9374	-0.000079
1000.67	0.000765
1001.39	-0.000269
1002.12	0.000026
1002.85	0.001166
1003.58	-0.000459
1004.31	-0.000375
1005.04	0.000765
1005.77	0.000554
1006.5	0.000280
1007.22	-0.000311
1007.95	0.001335
1008.68	-0.000100
1009.41	0.000681
1010.14	0.000913
1010.87	0.001504
1011.6	0.002053
1012.33	0.000237
1013.06	-0.000100
1013.79	0.001504
1014.52	0.001504
1015.25	-0.000438
1015.98	-0.000902
1016.71	-0.000248
1017.44	-0.000755
1018.17	-0.000121
1018.9	0.002222
1019.63	0.000596
1020.36	0.000322
1021.09	-0.000100
1021.82	0.000132
1022.55	-0.001029
1023.03	0.000871