File: Auto_Polymerization/Spectra/spectrum_2025-06-20_07-22-25.txt
# Wavelength (nm)	Intensity (a.u.)
197.7802	0.001056
198.3922	-0.000040
199.0044	-0.000040
199.6168	0.000487
200.2292	-0.000420
200.8418	-0.000146
201.4546	0.000170
202.0674	-0.000167
202.6805	0.001836
203.2936	0.000297
203.9069	-0.000188
204.5203	0.000360
205.1338	0.000677
205.7475	-0.000504
206.3614	0.001267
206.9753	0.000466
207.5894	0.000170
208.2036	0.000866
208.8180	-0.000462
209.4325	-0.000715
210.0471	0.001668
210.6618	0.000276
211.2767	0.000993
211.8918	-0.001411
212.5069	0.001752
213.1222	0.000276
213.7376	0.001372
214.3532	0.000634
214.9689	-0.000062
215.5847	0.000571
216.2007	-0.000083
216.8168	0.000908
217.4330	0.000381
218.0494	-0.000989
218.6659	-0.000525
219.2825	0.000613
219.8992	0.000128
220.5161	0.000065
221.1332	0.001562
221.7503	0.000719
222.3676	0.000213
222.9850	0.000276
223.6026	0.000149
224.2203	0.000845
224.8381	0.000339
225.4561	0.001056
226.0742	0.001457
226.6924	-0.000146
227.3107	0.000803
227.9292	0.000550
228.5478	0.001984
229.1666	0.000993
229.7855	0.001056
230.4045	0.000655
231.0236	0.000782
231.6429	0.000107
232.2623	0.001752
232.8818	0.000360
233.5015	0.000592
234.1213	0.001119
234.7413	-0.000420
235.3613	0.001457
235.9815	-0.000272
236.6018	0.000824
237.2223	0.000887
237.8429	-0.001538
238.4636	0.002553
239.0845	-0.000357
239.7055	-0.000589
240.3266	0.000634
240.9478	-0.000188
241.5692	0.000128
242.1907	0.001815
242.8124	0.000508
243.4341	0.000634
244.0560	0.000318
244.6781	0.001056
245.3002	0.000866
245.9225	0.002089
246.5449	0.000466
247.1675	0.000634
247.7902	-0.000272
248.4130	0.000466
249.0359	-0.001031
249.6590	0.002490
250.2822	0.000887
250.9056	-0.000736
251.5290	0.000508
252.1526	0.000698
252.7763	-0.000083
253.4002	0.000339
254.0242	0.001689
254.6483	0.000445
255.2725	-0.000293
255.8969	0.000381
256.5214	-0.000083
257.1460	-0.000546
257.7708	0.001794
258.3957	0.002174
259.0207	0.000402
259.6459	0.001668
260.2711	0.000086
260.8965	0.000487
261.5221	0.000930
262.1477	0.001056
262.7735	0.001162
263.3995	0.000740
264.0255	0.001035
264.6517	0.001162
265.2780	0.000698
265.9044	0.001689
266.5310	-0.000504
267.1577	0.000887
267.7845	0.000402
268.4114	0.000887
269.0385	0.000402
269.6657	0.001140
270.2931	0.000571
270.9205	0.000908
271.5481	-0.000040
272.1758	0.001246
272.8037	0.001119
273.4316	0.001393
274.0597	0.001225
274.6880	0.000023
275.3163	0.000276
275.9448	0.000086
276.5734	0.000107
277.2022	-0.000947
277.8310	0.000993
278.4600	0.000930
279.0891	0.000297
279.7184	0.000845
280.3477	0.000972
280.9772	0.000149
281.6069	0.001225
282.2366	0.000423
282.8665	0.000866
283.4965	-0.000610
284.1266	-0.000673
284.7569	0.001204
285.3873	0.000023
286.0178	0.000719
286.6484	-0.000926
287.2792	0.001625
287.9101	0.000908
288.5411	0.000213
289.1723	0.000972
289.8035	0.001330
290.4349	0.000824
291.0665	0.000044
291.6981	0.001183
292.3299	0.001963
292.9618	0.001878
293.5938	-0.001010
294.2260	0.001246
294.8582	0.000339
295.4906	0.002153
296.1232	-0.000968
296.7558	-0.000589
297.3886	0.001436
298.0215	0.001183
298.6545	0.000845
299.2877	0.001520
299.9210	0.001288
300.5544	0.000782
301.1879	0.000908
301.8215	-0.000019
302.4553	0.001499
303.0892	0.001668
303.7233	0.001372
304.3574	-0.000525
304.9917	0.000571
305.6261	0.000866
306.2606	0.000086
306.8953	0.000677
307.5301	0.001098
308.1650	0.000634
308.8000	0.001752
309.4351	0.001921
310.0704	0.001942
310.7058	0.001815
311.3413	0.000908
311.9770	0.000402
312.6127	0.000149
313.2486	0.000529
313.8846	0.001183
314.5208	0.001731
315.1570	0.001183
315.7934	0.000402
316.4299	0.001014
317.0666	0.002047
317.7033	0.001836
318.3402	0.002026
318.9772	0.003312
319.6143	0.001625
320.2516	0.002363
320.8890	0.000655
321.5265	0.001499
322.1641	0.001162
322.8018	0.002427
323.4397	0.002469
324.0777	0.002891
324.7158	0.002806
325.3540	0.003650
325.9924	0.002532
326.6308	0.003439
327.2694	0.002363
327.9082	0.002110
328.5470	0.002616
329.1860	0.004388
329.8251	0.003144
330.4643	0.003882
331.1036	0.002954
331.7431	0.003038
332.3826	0.002848
333.0223	0.004050
333.6622	0.003713
334.3021	0.002785
334.9422	0.002806
335.5823	0.003270
336.2227	0.004156
336.8631	0.004114
337.5036	0.003460
338.1443	0.003861
338.7851	0.003755
339.4260	0.004957
340.0670	0.005400
340.7082	0.005400
341.3495	0.005168
341.9909	0.006749
342.6324	0.004198
343.2740	0.005041
343.9158	0.004894
344.5577	0.005590
345.1997	0.005210
345.8418	0.005168
346.4840	0.006075
347.1264	0.004535
347.7689	0.004514
348.4115	0.005737
349.0542	0.005843
349.6971	0.006918
350.3400	0.006665
350.9831	0.005400
351.6263	0.007487
352.2696	0.007066
352.9131	0.007825
353.5566	0.008036
354.2003	0.005927
354.8441	0.008837
355.4881	0.008985
356.1321	0.008331
356.7763	0.008225
357.4206	0.007298
358.0650	0.007698
358.7095	0.008795
359.3541	0.008057
359.9989	0.006897
360.6438	0.007762
361.2888	0.007255
361.9339	0.006834
362.5791	0.008795
363.2245	0.009195
363.8699	0.008015
364.5155	0.009090
365.1612	0.008753
365.8071	0.008542
366.4530	0.009153
367.0991	0.009933
367.7453	0.009195
368.3916	0.009786
369.0380	0.008563
369.6845	0.009828
370.3312	0.010482
370.9780	0.009533
371.6249	0.012886
372.2719	0.010735
372.9190	0.010629
373.5663	0.009912
374.2136	0.011536
374.8611	0.010882
375.5087	0.013244
376.1564	0.011641
376.8043	0.013834
377.4522	0.012886
378.1003	0.012654
378.7485	0.014825
379.3968	0.015374
380.0452	0.014699
380.6938	0.016091
381.3424	0.015774
381.9912	0.016301
382.6401	0.017040
383.2891	0.016386
383.9382	0.017609
384.5875	0.016259
385.2368	0.016976
385.8863	0.017778
386.5359	0.018705
387.1856	0.020898
387.8355	0.019064
388.4854	0.019486
389.1355	0.019359
389.7856	0.021362
390.4359	0.020224
391.0863	0.020434
391.7369	0.021847
392.3875	0.022754
393.0383	0.025643
393.6891	0.023534
394.3401	0.022838
394.9912	0.023471
395.6425	0.022353
396.2938	0.023387
396.9453	0.024462
397.5968	0.026254
398.2485	0.026592
398.9003	0.027730
399.5522	0.025706
400.2043	0.025116
400.8564	0.025242
401.5087	0.025010
402.1610	0.027751
402.8135	0.025601
403.4661	0.024905
404.1189	0.026254
404.7717	0.027056
405.4246	0.030113
406.0777	0.027583
406.7309	0.026423
407.3842	0.025369
408.0376	0.027013
408.6911	0.025790
409.3448	0.025980
409.9985	0.026360
410.6524	0.025643
411.3064	0.027498
411.9605	0.025073
412.6147	0.025685
413.2690	0.027562
413.9234	0.029670
414.5780	0.026423
415.2326	0.029333
415.8874	0.028152
416.5423	0.025980
417.1973	0.024863
417.8524	0.026001
418.5077	0.027224
419.1630	0.029354
419.8185	0.026802
420.4741	0.030408
421.1298	0.031610
421.7856	0.033466
422.4415	0.032369
423.0975	0.033276
423.7536	0.030999
424.4099	0.030514
425.0663	0.029944
425.7228	0.029797
426.3793	0.028004
427.0361	0.030366
427.6929	0.032348
428.3498	0.030429
429.0068	0.029185
429.6640	0.032369
430.3213	0.035574
430.9787	0.033782
431.6362	0.030809
432.2938	0.030071
432.9515	0.028721
433.6093	0.034689
434.2673	0.035511
434.9253	0.031631
435.5835	0.031863
436.2418	0.032770
436.9001	0.033550
437.5586	0.033255
438.2173	0.033149
438.8760	0.035111
439.5348	0.033761
440.1938	0.035574
440.8528	0.035490
441.5120	0.041521
442.1713	0.041162
442.8307	0.038695
443.4902	0.040867
444.1498	0.040551
444.8095	0.040361
445.4694	0.039201
446.1293	0.039286
446.7894	0.039918
447.4496	0.038906
448.1098	0.039981
448.7702	0.038400
449.4307	0.036987
450.0914	0.037641
450.7521	0.038295
451.4129	0.038463
452.0739	0.036249
452.7349	0.034604
453.3961	0.035216
454.0574	0.036207
454.7188	0.034689
455.3803	0.035933
456.0419	0.036207
456.7036	0.033613
457.3654	0.037156
458.0274	0.038316
458.6894	0.040530
459.3516	0.038864
460.0138	0.039391
460.6762	0.037008
461.3387	0.038674
462.0013	0.035047
462.6640	0.033149
463.3268	0.035638
463.9897	0.037367
464.6528	0.038780
465.3159	0.039960
465.9792	0.044367
466.6425	0.038632
467.3060	0.035870
467.9696	0.036376
468.6333	0.035047
469.2970	0.031758
469.9610	0.032116
470.6250	0.030366
471.2891	0.029776
471.9533	0.030556
472.6177	0.032960
473.2821	0.033634
473.9467	0.035722
474.6113	0.035406
475.2761	0.038737
475.9410	0.037346
476.6060	0.035912
477.2711	0.037008
477.9363	0.037852
478.6016	0.034984
479.2670	0.036608
479.9325	0.037346
480.5982	0.038695
481.2639	0.039581
481.9298	0.040108
482.5957	0.036439
483.2618	0.035996
483.9280	0.039454
484.5943	0.043524
485.2606	0.045611
485.9271	0.142229
486.5937	0.095776
487.2605	0.069671
487.9273	0.046160
488.5942	0.040719
489.2612	0.039159
489.9284	0.041141
490.5956	0.038400
491.2630	0.038611
491.9304	0.039286
492.5980	0.040087
493.2657	0.038105
493.9334	0.040150
494.6013	0.038906
495.2693	0.037050
495.9374	0.037599
496.6056	0.043608
497.2739	0.039876
497.9423	0.037557
498.6109	0.037978
499.2795	0.040593
499.9482	0.040909
500.6171	0.037514
501.2860	0.040551
501.9551	0.041500
502.6242	0.042702
503.2935	0.042680
503.9628	0.039391
504.6323	0.037873
505.3019	0.038379
505.9716	0.038505
506.6414	0.041753
507.3113	0.036355
507.9813	0.038231
508.6514	0.036270
509.3216	0.039159
509.9919	0.038273
510.6623	0.036418
511.3329	0.035659
512.0035	0.036755
512.6742	0.035089
513.3451	0.034626
514.0160	0.034056
514.6871	0.033276
515.3582	0.031610
516.0295	0.031188
516.7008	0.032875
517.3723	0.032243
518.0439	0.030472
518.7155	0.030872
519.3873	0.031357
520.0592	0.031779
520.7312	0.027730
521.4033	0.027962
522.0755	0.028510
522.7478	0.028426
523.4202	0.030408
524.0927	0.030155
524.7653	0.026908
525.4380	0.025664
526.1108	0.026444
526.7837	0.030176
527.4568	0.030155
528.1299	0.027435
528.8031	0.029944
529.4765	0.032433
530.1499	0.031926
530.8234	0.028489
531.4971	0.028721
532.1708	0.028236
532.8447	0.030071
533.5186	0.034056
534.1927	0.033887
534.8668	0.035132
535.5411	0.034351
536.2155	0.033487
536.8899	0.031125
537.5645	0.029017
538.2392	0.031884
538.9139	0.034689
539.5888	0.034921
540.2638	0.034836
540.9389	0.035532
541.6140	0.036376
542.2893	0.035279
542.9647	0.036418
543.6402	0.036144
544.3158	0.038189
544.9915	0.039728
545.6673	0.034836
546.3432	0.035490
547.0192	0.035427
547.6953	0.038990
548.3715	0.042744
549.0478	0.040382
549.7242	0.035722
550.4007	0.035511
551.0773	0.033445
551.7540	0.035511
552.4308	0.040825
553.1077	0.037219
553.7847	0.038737
554.4618	0.036523
555.1390	0.038358
555.8163	0.038653
556.4937	0.040382
557.1712	0.037303
557.8488	0.040466
558.5266	0.038442
559.2044	0.034836
559.8823	0.036460
560.5603	0.043039
561.2384	0.047509
561.9166	0.044262
562.5949	0.040698
563.2733	0.042048
563.9519	0.046813
564.6305	0.046054
565.3092	0.046919
565.9880	0.047172
566.6669	0.047003
567.3459	0.055480
568.0250	0.060794
568.7043	0.068933
569.3836	0.083567
570.0630	0.106382
570.7425	0.110832
571.4221	0.132782
572.1018	0.139193
572.7816	0.116293
573.4615	0.136051
574.1415	0.155535
574.8216	0.165382
575.5018	0.165508
576.1821	0.146552
576.8626	0.170421
577.5431	0.181597
578.2237	0.224234
578.9044	0.183010
579.5851	0.181576
580.2660	0.185098
580.9470	0.182462
581.6281	0.282348
582.3093	0.264783
582.9906	0.205615
583.6720	0.164707
584.3535	0.164918
585.0351	0.194080
585.7167	0.200343
586.3985	0.170063
587.0804	0.180290
587.7624	0.187164
588.4445	0.169304
589.1266	0.142313
589.8089	0.134469
590.4913	0.123863
591.1737	0.105033
591.8563	0.108006
592.5389	0.123968
593.2217	0.167554
593.9046	0.157959
594.5875	0.138750
595.2705	0.155450
595.9537	0.137801
596.6369	0.113741
597.3203	0.118507
598.0037	0.114037
598.6872	0.125993
599.3709	0.145729
600.0546	0.142124
600.7384	0.141765
601.4223	0.148260
602.1064	0.129788
602.7905	0.130885
603.4747	0.148935
604.1590	0.133626
604.8434	0.119856
605.5279	0.128312
606.2125	0.130104
606.8972	0.121164
607.5819	0.126372
608.2668	0.115260
608.9518	0.112223
609.6369	0.102798
610.3220	0.119371
611.0073	0.106614
611.6927	0.104590
612.3781	0.098433
613.0637	0.097779
613.7493	0.100478
614.4351	0.097378
615.1209	0.095481
615.8068	0.101785
616.4929	0.085212
617.1790	0.082154
617.8652	0.083693
618.5515	0.078548
619.2379	0.068111
619.9244	0.070999
620.6110	0.072370
621.2977	0.056513
621.9845	0.063514
622.6714	0.063914
623.3584	0.071484
624.0454	0.065222
624.7326	0.071295
625.4199	0.064779
626.1072	0.059360
626.7947	0.054151
627.4822	0.055037
628.1698	0.049702
628.8576	0.043545
629.5454	0.049070
630.2333	0.045401
630.9213	0.044135
631.6094	0.040719
632.2976	0.039728
632.9859	0.035174
633.6743	0.033149
634.3628	0.033128
635.0514	0.030999
635.7400	0.032791
636.4288	0.036481
637.1177	0.033192
637.8066	0.029291
638.4957	0.033824
639.1848	0.030577
639.8740	0.026288
640.5633	0.028654
641.2528	0.027774
641.9423	0.023694
642.6319	0.025826
643.3216	0.021808
644.0113	0.023530
644.7012	0.019822
645.3912	0.023358
646.0812	0.019949
646.7714	0.020069
647.4616	0.018359
648.1520	0.022835
648.8424	0.026714
649.5329	0.024586
650.2236	0.025035
650.9143	0.022182
651.6051	0.021500
652.2960	0.023885
652.9870	0.025057
653.6780	0.025897
654.3692	0.025726
655.0605	0.047140
655.7518	0.764028
656.4433	1.000000
657.1348	0.643003
657.8264	0.388582
658.5181	0.283977
659.2099	0.199719
659.9018	0.051974
660.5938	0.021251
661.2859	0.018683
661.9781	0.016054
662.6704	0.016778
663.3627	0.017488
664.0552	0.016589
664.7477	0.018245
665.4403	0.018479
666.1330	0.017748
666.8259	0.017017
667.5188	0.017255
668.2117	0.015794
668.9048	0.016723
669.5980	0.016829
670.2913	0.017630
670.9846	0.016365
671.6781	0.022501
672.3716	0.026064
673.0652	0.023724
673.7589	0.024230
674.4527	0.021257
675.1466	0.021510
675.8406	0.020139
676.5347	0.018874
677.2288	0.020034
677.9231	0.022121
678.6174	0.023302
679.3119	0.022501
680.0064	0.028342
680.7010	0.026254
681.3957	0.025833
682.0905	0.025727
682.7854	0.022648
683.4803	0.024272
684.1754	0.024757
684.8705	0.028785
685.5658	0.034246
686.2611	0.033445
686.9565	0.032201
687.6520	0.033255
688.3476	0.029438
689.0433	0.028236
689.7390	0.028742
690.4349	0.024905
691.1308	0.027056
691.8269	0.027519
692.5230	0.028173
693.2192	0.029586
693.9155	0.029923
694.6119	0.027393
695.3083	0.026318
696.0049	0.021995
696.7016	0.026191
697.3983	0.031294
698.0951	0.030092
698.7920	0.027646
699.4890	0.026043
700.1861	0.024293
700.8833	0.022438
701.5806	0.021868
702.2779	0.022585
702.9753	0.022606
703.6729	0.019739
704.3705	0.020983
705.0682	0.020013
705.7660	0.017714
706.4638	0.023787
707.1618	0.027983
707.8599	0.029396
708.5580	0.026824
709.2562	0.026022
709.9545	0.024799
710.6529	0.027541
711.3514	0.023661
712.0500	0.022206
712.7486	0.023408
713.4474	0.024757
714.1462	0.026528
714.8451	0.028089
715.5441	0.028215
716.2432	0.024314
716.9424	0.020983
717.6416	0.020329
718.3410	0.023703
719.0404	0.021826
719.7399	0.022923
720.4395	0.020666
721.1392	0.022100
721.8390	0.023513
722.5388	0.021025
723.2388	0.021468
723.9388	0.022712
724.6389	0.019675
725.3391	0.025284
726.0394	0.026718
726.7398	0.024968
727.4403	0.022691
728.1408	0.026971
728.8414	0.025706
729.5421	0.027667
730.2429	0.027456
730.9438	0.031863
731.6448	0.033866
732.3458	0.030661
733.0470	0.034372
733.7482	0.034520
734.4495	0.041120
735.1509	0.036439
735.8524	0.037472
736.5539	0.035764
737.2556	0.036629
737.9573	0.033276
738.6591	0.032896
739.3610	0.034984
740.0630	0.033107
740.7651	0.030598
741.4672	0.027794
742.1695	0.026465
742.8718	0.028047
743.5742	0.022754
744.2767	0.022100
744.9792	0.022332
745.6819	0.021594
746.3846	0.023049
747.0874	0.022965
747.7903	0.024884
748.4933	0.023914
749.1964	0.025453
749.8995	0.029017
750.6028	0.032327
751.3061	0.029227
752.0095	0.029143
752.7130	0.027034
753.4166	0.028553
754.1202	0.032201
754.8239	0.032011
755.5278	0.030978
756.2317	0.034689
756.9356	0.038252
757.6397	0.044325
758.3438	0.043144
759.0481	0.041373
759.7524	0.045042
760.4568	0.047636
761.1613	0.047298
761.8658	0.039033
762.5705	0.035406
763.2752	0.039117
763.9800	0.037093
764.6849	0.044367
765.3898	0.040783
766.0949	0.037683
766.8000	0.031294
767.5052	0.027920
768.2105	0.032475
768.9159	0.037873
769.6214	0.033171
770.3269	0.034077
771.0325	0.036228
771.7382	0.035827
772.4440	0.030176
773.1499	0.031378
773.8558	0.028574
774.5618	0.024525
775.2679	0.022480
775.9741	0.022944
776.6804	0.020434
777.3868	0.018073
778.0932	0.018347
778.7997	0.020645
779.5063	0.025348
780.2130	0.020814
780.9197	0.024947
781.6265	0.027013
782.3335	0.027836
783.0405	0.025622
783.7475	0.027013
784.4547	0.021868
785.1619	0.021995
785.8692	0.021784
786.5766	0.022100
787.2841	0.021004
787.9917	0.023302
788.6993	0.023682
789.4070	0.022606
790.1148	0.021151
790.8227	0.018874
791.5306	0.017735
792.2387	0.014783
792.9468	0.016850
793.6550	0.018726
794.3632	0.024293
795.0716	0.024694
795.7800	0.021362
796.4885	0.017904
797.1971	0.016934
797.9058	0.018916
798.6145	0.017040
799.3233	0.015795
800.0322	0.016259
800.7412	0.017061
801.4503	0.013708
802.1594	0.013223
802.8686	0.012822
803.5779	0.016491
804.2873	0.011768
804.9968	0.014446
805.7063	0.014256
806.4159	0.019338
807.1256	0.016808
807.8354	0.019654
808.5452	0.017778
809.2551	0.015627
809.9651	0.014678
810.6752	0.013982
811.3853	0.014868
812.0956	0.013792
812.8059	0.009491
813.5163	0.013307
814.2267	0.015690
814.9373	0.012485
815.6479	0.010819
816.3586	0.010439
817.0694	0.011156
817.7802	0.010524
818.4912	0.011409
819.2022	0.010208
819.9133	0.009955
820.6244	0.010313
821.3357	0.011894
822.0470	0.010292
822.7584	0.009427
823.4698	0.008331
824.1814	0.009216
824.8930	0.009090
825.6047	0.009723
826.3165	0.009891
827.0283	0.011494
827.7402	0.009132
828.4522	0.008879
829.1643	0.009807
829.8765	0.009997
830.5887	0.008542
831.3010	0.008521
832.0134	0.006201
832.7259	0.005294
833.4384	0.006454
834.1510	0.007888
834.8637	0.007129
835.5765	0.007129
836.2893	0.007298
837.0022	0.005505
837.7152	0.005906
838.4283	0.006285
839.1414	0.005632
839.8546	0.005020
840.5679	0.006180
841.2813	0.005337
841.9947	0.005316
842.7082	0.004746
843.4218	0.002933
844.1355	0.004324
844.8492	0.004050
845.5631	0.004894
846.2770	0.004008
846.9909	0.003692
847.7050	0.004915
848.4191	0.004451
849.1333	0.003586
849.8475	0.003481
850.5619	0.004704
851.2763	0.003397
851.9908	0.004493
852.7053	0.007045
853.4200	0.010123
854.1347	0.009364
854.8495	0.011916
855.5643	0.010102
856.2792	0.008753
856.9942	0.009006
857.7093	0.008373
858.4245	0.007698
859.1397	0.007234
859.8550	0.007382
860.5704	0.005337
861.2858	0.005653
862.0013	0.004240
862.7169	0.005316
863.4326	0.005674
864.1483	0.006201
864.8642	0.005210
865.5800	0.003903
866.2960	0.004409
867.0120	0.004535
867.7281	0.004662
868.4443	0.005843
869.1606	0.004029
869.8769	0.003207
870.5933	0.004050
871.3097	0.004915
872.0263	0.003123
872.7429	0.004093
873.4596	0.003924
874.1763	0.005231
874.8932	0.004620
875.6101	0.004599
876.3270	0.005316
877.0441	0.004050
877.7612	0.005526
878.4784	0.005927
879.1957	0.005526
879.9130	0.007487
880.6304	0.006581
881.3479	0.006138
882.0654	0.005463
882.7831	0.005653
883.5007	0.005421
884.2185	0.004894
884.9363	0.006897
885.6542	0.006981
886.3722	0.004788
887.0903	0.005505
887.8084	0.004641
888.5266	0.003776
889.2448	0.004788
889.9632	0.003270
890.6816	0.004303
891.4001	0.004451
892.1186	0.004704
892.8372	0.003101
893.5559	0.004261
894.2747	0.002110
894.9935	0.003839
895.7124	0.001921
896.4314	0.003692
897.1504	0.003987
897.8695	0.003818
898.5887	0.003586
899.3079	0.004261
900.0272	0.002258
900.7466	0.003903
901.4661	0.002427
902.1856	0.003797
902.9052	0.003270
903.6249	0.003945
904.3446	0.003924
905.0644	0.003755
905.7843	0.004071
906.5043	0.005674
907.2243	0.002869
907.9444	0.003924
908.6645	0.003165
909.3847	0.004156
910.1050	0.003586
910.8254	0.001984
911.5458	0.002237
912.2663	0.003291
912.9869	0.003586
913.7075	0.003818
914.4283	0.003839
915.1490	0.003903
915.8699	0.001773
916.5908	0.002764
917.3118	0.002363
918.0328	0.004071
918.7539	0.002975
919.4751	0.003544
920.1964	0.003776
920.9177	0.002722
921.6391	0.001984
922.3606	0.002469
923.0821	0.002680
923.8037	0.003692
924.5254	0.003987
925.2471	0.003249
925.9689	0.002975
926.6908	0.003312
927.4127	0.001520
928.1347	0.003439
928.8568	0.002427
929.5789	0.002005
930.3011	0.000466
931.0234	0.002216
931.7457	0.000487
932.4681	0.000908
933.1906	0.002068
933.9131	0.001478
934.6358	0.000761
935.3584	0.002300
936.0812	0.001794
936.8040	0.002195
937.5269	0.000276
938.2498	0.000255
938.9728	0.002321
939.6959	0.000908
940.4190	0.001541
941.1422	0.001541
941.8655	0.001794
942.5889	0.001162
943.3123	0.001204
944.0357	0.000149
944.7593	0.002237
945.4829	0.000972
946.2066	0.001625
946.9303	0.002595
947.6541	0.000993
948.3780	0.000677
949.1019	0.001710
949.8259	0.001457
950.5500	0.000951
951.2741	0.001562
951.9983	0.003017
952.7226	0.000951
953.4469	0.003186
954.1713	-0.000504
954.8958	0.001119
955.6203	0.000677
956.3449	0.000845
957.0696	0.001077
957.7943	0.000297
958.5191	0.000677
959.2439	0.000613
959.9688	0.000023
960.6938	0.000234
961.4189	0.002237
962.1440	0.001689
962.8692	0.002131
963.5944	0.001984
964.3197	0.000170
965.0451	0.000023
965.7705	0.000107
966.4960	-0.000104
967.2216	0.000824
967.9472	0.001857
968.6729	0.000065
969.3987	0.000445
970.1245	0.000107
970.8504	0.001562
971.5763	0.000023
972.3023	0.000170
973.0284	0.000698
973.7545	0.000951
974.4807	0.001415
975.2070	0.000740
975.9333	0.000023
976.6597	0.000592
977.3862	0.001520
978.1127	0.000318
978.8393	0.000761
979.5659	0.001225
980.2926	0.000381
981.0194	0.001288
981.7462	0.000993
982.4731	0.000930
983.2001	0.001077
983.9271	0.000761
984.6542	-0.000188
985.3814	0.000993
986.1086	0.001204
986.8358	0.000466
987.5632	0.000866
988.2906	0.001562
989.0180	0.000107
989.7456	-0.000019
990.4732	0.001246
991.2008	0.001183
991.9285	0.000423
992.6563	0.002279
993.3841	-0.000546
994.1120	0.003165
994.8400	-0.000652
995.5680	0.002047
996.2961	0.000107
997.0242	0.000571
997.7524	-0.000272
998.4807	0.001457
999.2090	0.000318
999.9374	-0.000399
1000.67	0.001372
1001.39	0.000824
1002.12	0.000318
1002.85	0.000402
1003.58	0.001372
1004.31	0.000803
1005.04	0.000381
1005.77	0.001393
1006.5	0.000824
1007.22	-0.000019
1007.95	0.000360
1008.68	0.000761
1009.41	0.000951
1010.14	-0.000441
1010.87	0.001183
1011.6	0.000866
1012.33	0.001815
1013.06	0.000339
1013.79	0.000445
1014.52	0.001604
1015.25	0.000381
1015.98	0.001604
1016.71	-0.000293
1017.44	0.001309
1018.17	0.000571
1018.9	0.001225
1019.63	0.000023
1020.36	0.001246
1021.09	0.000845
1021.82	-0.000610
1022.55	0.001162
1023.03	0.001098