File: Auto_Polymerization/Data/UV_VIS_Spectra/MRG-061-F-4_spectra_while_stopped_no_alu_foil/spectrum_2025-06-20_08-18-36.txt
# Wavelength (nm)	Intensity (a.u.)
197.7802	0.000519
198.3922	0.000434
199.0044	0.001088
199.6168	-0.000916
200.2292	0.000434
200.8418	-0.000199
201.4546	-0.000220
202.0674	-0.000726
202.6805	-0.000114
203.2936	0.000202
203.9069	0.001067
204.5203	-0.000557
205.1338	0.000940
205.7475	-0.000051
206.3614	-0.000578
206.9753	-0.000473
207.5894	-0.001148
208.2036	-0.000241
208.8180	0.000772
209.4325	0.000687
210.0471	-0.000093
210.6618	0.000139
211.2767	0.000519
211.8918	-0.000178
212.5069	0.002143
213.1222	0.000329
213.7376	-0.000009
214.3532	-0.000684
214.9689	-0.000853
215.5847	-0.000030
216.2007	0.000645
216.8168	-0.001190
217.4330	0.001004
218.0494	-0.001717
218.6659	0.000666
219.2825	-0.000599
219.8992	0.000308
220.5161	0.001510
221.1332	-0.000156
221.7503	0.000898
222.3676	-0.000642
222.9850	0.000223
223.6026	0.000687
224.2203	0.000898
224.8381	0.000350
225.4561	-0.000494
226.0742	-0.000241
226.6924	-0.001148
227.3107	0.001763
227.9292	-0.000346
228.5478	0.001046
229.1666	0.000118
229.7855	0.000097
230.4045	-0.000346
231.0236	0.000624
231.6429	-0.001422
232.2623	0.000751
232.8818	0.000392
233.5015	0.001151
234.1213	0.001025
234.7413	0.000455
235.3613	-0.001042
235.9815	-0.000135
236.6018	0.000519
237.2223	0.000054
237.8429	-0.000831
238.4636	-0.000030
239.0845	-0.001401
239.7055	0.001383
240.3266	-0.000747
240.9478	-0.000642
241.5692	0.000076
242.1907	0.001573
242.8124	-0.000831
243.4341	-0.000663
244.0560	-0.000093
244.6781	0.000497
245.3002	0.001088
245.9225	0.000223
246.5449	-0.000663
247.1675	0.000962
247.7902	-0.000241
248.4130	0.001362
249.0359	0.001320
249.6590	0.000118
250.2822	-0.000030
250.9056	0.001468
251.5290	0.000139
252.1526	-0.000283
252.7763	-0.000663
253.4002	0.000497
254.0242	-0.001380
254.6483	-0.000536
255.2725	-0.000874
255.8969	0.001067
256.5214	0.000265
257.1460	0.000455
257.7708	-0.000325
258.3957	0.000097
259.0207	0.000898
259.6459	0.001784
260.2711	-0.000452
260.8965	0.001236
261.5221	0.000455
262.1477	0.001573
262.7735	0.000540
263.3995	0.001615
264.0255	-0.001317
264.6517	-0.000473
265.2780	0.000265
265.9044	-0.000452
266.5310	0.001004
267.1577	0.000202
267.7845	0.000940
268.4114	0.000983
269.0385	-0.001422
269.6657	0.000666
270.2931	-0.001401
270.9205	0.000033
271.5481	-0.000726
272.1758	0.001257
272.8037	0.000497
273.4316	0.000772
274.0597	0.000097
274.6880	0.000708
275.3163	0.000076
275.9448	0.000329
276.5734	-0.001907
277.2022	0.000076
277.8310	-0.000030
278.4600	-0.000346
279.0891	0.000097
279.7184	0.001278
280.3477	0.000582
280.9772	-0.000178
281.6069	0.001194
282.2366	0.000877
282.8665	-0.001675
283.4965	0.001004
284.1266	0.000097
284.7569	0.000940
285.3873	-0.000452
286.0178	-0.000262
286.6484	-0.000410
287.2792	0.001594
287.9101	-0.000072
288.5411	0.001215
289.1723	0.000730
289.8035	0.000898
290.4349	-0.000325
291.0665	0.001067
291.6981	-0.001317
292.3299	0.001594
292.9618	-0.001127
293.5938	0.000561
294.2260	0.000708
294.8582	0.000223
295.4906	-0.000072
296.1232	0.000540
296.7558	-0.000009
297.3886	0.001194
298.0215	0.000793
298.6545	0.000181
299.2877	-0.000156
299.9210	0.000455
300.5544	-0.000452
301.1879	-0.000199
301.8215	-0.000494
302.4553	-0.000262
303.0892	-0.001190
303.7233	0.000497
304.3574	-0.001232
304.9917	-0.000304
305.6261	-0.000367
306.2606	0.000329
306.8953	-0.000557
307.5301	0.000645
308.1650	-0.000093
308.8000	0.000202
309.4351	0.000434
310.0704	-0.000135
310.7058	0.000139
311.3413	0.001890
311.9770	0.001046
312.6127	0.001763
313.2486	-0.000388
313.8846	0.000308
314.5208	0.000012
315.1570	0.000962
315.7934	-0.000367
316.4299	0.001025
317.0666	-0.001127
317.7033	0.001405
318.3402	0.000434
318.9772	-0.000325
319.6143	-0.000473
320.2516	0.000582
320.8890	0.000202
321.5265	0.001468
322.1641	-0.000536
322.8018	0.000265
323.4397	0.000097
324.0777	0.001088
324.7158	-0.000283
325.3540	0.001046
325.9924	0.000202
326.6308	-0.000388
327.2694	-0.000072
327.9082	-0.000220
328.5470	0.000455
329.1860	-0.000262
329.8251	0.001468
330.4643	0.000708
331.1036	0.001341
331.7431	-0.000684
332.3826	0.000033
333.0223	-0.000156
333.6622	-0.000874
334.3021	-0.000199
334.9422	0.000012
335.5823	0.000455
336.2227	-0.000642
336.8631	-0.000895
337.5036	-0.001549
338.1443	0.000772
338.7851	-0.001274
339.4260	0.000603
340.0670	0.000097
340.7082	0.000181
341.3495	-0.000135
341.9909	-0.000072
342.6324	0.000160
343.2740	0.000814
343.9158	0.000181
344.5577	0.000244
345.1997	-0.000388
345.8418	0.000519
346.4840	0.000139
347.1264	0.001489
347.7689	0.000350
348.4115	0.000582
349.0542	-0.000473
349.6971	0.000202
350.3400	0.000202
350.9831	0.000645
351.6263	-0.000621
352.2696	0.000265
352.9131	-0.000916
353.5566	0.000350
354.2003	0.000012
354.8441	0.000350
355.4881	0.000392
356.1321	0.001658
356.7763	-0.000979
357.4206	0.001383
358.0650	0.000287
358.7095	0.000582
359.3541	-0.000262
359.9989	0.001489
360.6438	-0.000178
361.2888	0.001320
361.9339	0.000223
362.5791	0.000730
363.2245	0.000308
363.8699	-0.000030
364.5155	-0.000515
365.1612	-0.000199
365.8071	-0.000051
366.4530	0.000371
367.0991	-0.000030
367.7453	0.000160
368.3916	0.001405
369.0380	0.001848
369.6845	0.000202
370.3312	0.000666
370.9780	-0.001148
371.6249	0.000202
372.2719	0.000012
372.9190	-0.000410
373.5663	-0.000895
374.2136	-0.000853
374.8611	-0.000578
375.5087	0.000919
376.1564	0.000054
376.8043	0.000983
377.4522	-0.000642
378.1003	0.000118
378.7485	-0.000621
379.3968	-0.000599
380.0452	0.000603
380.6938	0.001299
381.3424	-0.000346
381.9912	0.000329
382.6401	-0.000072
383.2891	-0.000726
383.9382	-0.000410
384.5875	-0.000114
385.2368	0.001362
385.8863	0.000181
386.5359	0.001236
387.1856	0.001299
387.8355	0.000940
388.4854	0.002058
389.1355	0.001447
389.7856	0.003472
390.4359	0.001489
391.0863	0.003999
391.7369	0.005539
392.3875	0.003641
393.0383	0.005159
393.6891	0.006172
394.3401	0.005476
394.9912	0.007649
395.6425	0.007754
396.2938	0.007691
396.9453	0.010074
397.5968	0.010728
398.2485	0.010370
398.9003	0.012437
399.5522	0.012437
400.2043	0.014357
400.8564	0.013133
401.5087	0.014736
402.1610	0.014314
402.8135	0.016508
403.4661	0.015770
404.1189	0.017036
404.7717	0.017078
405.4246	0.018681
406.0777	0.019103
406.7309	0.019124
407.3842	0.018829
408.0376	0.017900
408.6911	0.019356
409.3448	0.020200
409.9985	0.020137
410.6524	0.020200
411.3064	0.021086
411.9605	0.020812
412.6147	0.021592
413.2690	0.023343
413.9234	0.020833
414.5780	0.020875
415.2326	0.021550
415.8874	0.023069
416.5423	0.021824
417.1973	0.021044
417.8524	0.020622
418.5077	0.021465
419.1630	0.023301
419.8185	0.025178
420.4741	0.024587
421.1298	0.025769
421.7856	0.028595
422.4415	0.030135
423.0975	0.026887
423.7536	0.026929
424.4099	0.024841
425.0663	0.023723
425.7228	0.023512
426.3793	0.022330
427.0361	0.023491
427.6929	0.025073
428.3498	0.023891
429.0068	0.023132
429.6640	0.027182
430.3213	0.027456
430.9787	0.028638
431.6362	0.024355
432.2938	0.020748
432.9515	0.023680
433.6093	0.026528
434.2673	0.025389
434.9253	0.023216
435.5835	0.021972
436.2418	0.023701
436.9001	0.023849
437.5586	0.024672
438.2173	0.022816
438.8760	0.024229
439.5348	0.025452
440.1938	0.022562
440.8528	0.023807
441.5120	0.027625
442.1713	0.026823
442.8307	0.025073
443.4902	0.025748
444.1498	0.025284
444.8095	0.025895
445.4694	0.025642
446.1293	0.023891
446.7894	0.024777
447.4496	0.023596
448.1098	0.021613
448.7702	0.024524
449.4307	0.022858
450.0914	0.021044
450.7521	0.022225
451.4129	0.018744
452.0739	0.019314
452.7349	0.019778
453.3961	0.017479
454.0574	0.016635
454.7188	0.017099
455.3803	0.017015
456.0419	0.017837
456.7036	0.015960
457.3654	0.016635
458.0274	0.015496
458.6894	0.017331
459.3516	0.019040
460.0138	0.015390
460.6762	0.013724
461.3387	0.015622
462.0013	0.013534
462.6640	0.013218
463.3268	0.012964
463.9897	0.013745
464.6528	0.014757
465.3159	0.013428
465.9792	0.014694
466.6425	0.013323
467.3060	0.008830
467.9696	0.011150
468.6333	0.009948
469.2970	0.008366
469.9610	0.007121
470.6250	0.007416
471.2891	0.007121
471.9533	0.006868
472.6177	0.007206
473.2821	0.008113
473.9467	0.008281
474.6113	0.009505
475.2761	0.008703
475.9410	0.007606
476.6060	0.008218
477.2711	0.006383
477.9363	0.006657
478.6016	0.005792
479.2670	0.005898
479.9325	0.006531
480.5982	0.008429
481.2639	0.006172
481.9298	0.006594
482.5957	0.005982
483.2618	0.005750
483.9280	0.005792
484.5943	0.005159
485.2606	0.006425
485.9271	0.016909
486.5937	0.012859
487.2605	0.008092
487.9273	0.005518
488.5942	0.004484
489.2612	0.003134
489.9284	0.003514
490.5956	0.003409
491.2630	0.004885
491.9304	0.003366
492.5980	0.002375
493.2657	0.002860
493.9334	0.003809
494.6013	0.003788
495.2693	0.002438
495.9374	0.003662
496.6056	0.002122
497.2739	0.002269
497.9423	0.003725
498.6109	0.001911
499.2795	0.003788
499.9482	0.003345
500.6171	0.002565
501.2860	0.001700
501.9551	0.002712
502.6242	0.002586
503.2935	0.002143
503.9628	0.002712
504.6323	0.002459
505.3019	0.003767
505.9716	0.002607
506.6414	0.002966
507.3113	0.003641
507.9813	0.002923
508.6514	0.002396
509.3216	0.001700
509.9919	0.002712
510.6623	0.002248
511.3329	0.002480
512.0035	0.002544
512.6742	0.002438
513.3451	0.003050
514.0160	0.002902
514.6871	0.001826
515.3582	0.003345
516.0295	0.002966
516.7008	0.002396
517.3723	0.003303
518.0439	0.001067
518.7155	0.002122
519.3873	0.002396
520.0592	0.003134
520.7312	0.002375
521.4033	0.003409
522.0755	0.003113
522.7478	0.001911
523.4202	0.003155
524.0927	0.003155
524.7653	0.002312
525.4380	0.004295
526.1108	0.003978
526.7837	0.003219
527.4568	0.003430
528.1299	0.003240
528.8031	0.004442
529.4765	0.003176
530.1499	0.003957
530.8234	0.003598
531.4971	0.003303
532.1708	0.004337
532.8447	0.005855
533.5186	0.005180
534.1927	0.005096
534.8668	0.006699
535.5411	0.006467
536.2155	0.007438
536.8899	0.006784
537.5645	0.008134
538.2392	0.006235
538.9139	0.007965
539.5888	0.007733
540.2638	0.009294
540.9389	0.009231
541.6140	0.010328
542.2893	0.009969
542.9647	0.011003
543.6402	0.010349
544.3158	0.011509
544.9915	0.013597
545.6673	0.011720
546.3432	0.011931
547.0192	0.012627
547.6953	0.014610
548.3715	0.017352
549.0478	0.016044
549.7242	0.014652
550.4007	0.013428
551.0773	0.017120
551.7540	0.015243
552.4308	0.018322
553.1077	0.018850
553.7847	0.020685
554.4618	0.018786
555.1390	0.020073
555.8163	0.020305
556.4937	0.023259
557.1712	0.021529
557.8488	0.022351
558.5266	0.022710
559.2044	0.022035
559.8823	0.022204
560.5603	0.027330
561.2384	0.028722
561.9166	0.031253
562.5949	0.026676
563.2733	0.029418
563.9519	0.030684
564.6305	0.031844
565.3092	0.036021
565.9880	0.033384
566.6669	0.033827
567.3459	0.043277
568.0250	0.046125
568.7043	0.054795
569.3836	0.068169
570.0630	0.086500
570.7425	0.086964
571.4221	0.106139
572.1018	0.120040
572.7816	0.097132
573.4615	0.113585
574.1415	0.132254
574.8216	0.144088
575.5018	0.146240
576.1821	0.129069
576.8626	0.148476
577.5431	0.160837
578.2237	0.202604
578.9044	0.169739
579.5851	0.166237
580.2660	0.172081
580.9470	0.170857
581.6281	0.268314
582.3093	0.255320
582.9906	0.198639
583.6720	0.161597
584.3535	0.160605
585.0351	0.190602
585.7167	0.198280
586.3985	0.168030
587.0804	0.177101
587.7624	0.188534
588.4445	0.165394
589.1266	0.147337
589.8089	0.134195
590.4913	0.121897
591.1737	0.107573
591.8563	0.110463
592.5389	0.127445
593.2217	0.167419
593.9046	0.164086
594.5875	0.141325
595.2705	0.160837
595.9537	0.143624
596.6369	0.119534
597.3203	0.125757
598.0037	0.120083
598.6872	0.128584
599.3709	0.149467
600.0546	0.153749
600.7384	0.150142
601.4223	0.151767
602.1064	0.136536
602.7905	0.140755
603.4747	0.155732
604.1590	0.143730
604.8434	0.130482
605.5279	0.135397
606.2125	0.140840
606.8972	0.131917
607.5819	0.130904
608.2668	0.122530
608.9518	0.117319
609.6369	0.107806
610.3220	0.122740
611.0073	0.114303
611.6927	0.115611
612.3781	0.105591
613.0637	0.106160
613.7493	0.105886
614.4351	0.102701
615.1209	0.102279
615.8068	0.110695
616.4929	0.094853
617.1790	0.092807
617.8652	0.091415
618.5515	0.083294
619.2379	0.073843
619.9244	0.077640
620.6110	0.076396
621.2977	0.060385
621.9845	0.065616
622.6714	0.067388
623.3584	0.073759
624.0454	0.072177
624.7326	0.076417
625.4199	0.068654
626.1072	0.064098
626.7947	0.059372
627.4822	0.060237
628.1698	0.052875
628.8576	0.049268
629.5454	0.051905
630.2333	0.050681
630.9213	0.046336
631.6094	0.042286
632.2976	0.042328
632.9859	0.036000
633.6743	0.037244
634.3628	0.035514
635.0514	0.033574
635.7400	0.033848
636.4288	0.038257
637.1177	0.035029
637.8066	0.035282
638.4957	0.034607
639.1848	0.034017
639.8740	0.031496
640.5633	0.031674
641.2528	0.028662
641.9423	0.026491
642.6319	0.023678
643.3216	0.023834
644.0113	0.024109
644.7012	0.020867
645.3912	0.022684
646.0812	0.022507
646.7714	0.019578
647.4616	0.020285
648.1520	0.022526
648.8424	0.025733
649.5329	0.026980
650.2236	0.024172
650.9143	0.024898
651.6051	0.024398
652.2960	0.023990
652.9870	0.025248
653.6780	0.028210
654.3692	0.029111
655.0605	0.046615
655.7518	0.807530
656.4433	1.000000
657.1348	0.723526
657.8264	0.436783
658.5181	0.327940
659.2099	0.234862
659.9018	0.057796
660.5938	0.023756
661.2859	0.020286
661.9781	0.016599
662.6704	0.016583
663.3627	0.020519
664.0552	0.017050
664.7477	0.018955
665.4403	0.019935
666.1330	0.019654
666.8259	0.017097
667.5188	0.018284
668.2117	0.018991
668.9048	0.016972
669.5980	0.017521
670.2913	0.018512
670.9846	0.017584
671.6781	0.023638
672.3716	0.028427
673.0652	0.028933
673.7589	0.025178
674.4527	0.023111
675.1466	0.023069
675.8406	0.020664
676.5347	0.020453
677.2288	0.018111
677.9231	0.023870
678.6174	0.023997
679.3119	0.026338
680.0064	0.030663
680.7010	0.027372
681.3957	0.029081
682.0905	0.027393
682.7854	0.025938
683.4803	0.023237
684.1754	0.027288
684.8705	0.031169
685.5658	0.036548
686.2611	0.035367
686.9565	0.035662
687.6520	0.035957
688.3476	0.033510
689.0433	0.030810
689.7390	0.028827
690.4349	0.028131
691.1308	0.031063
691.8269	0.030768
692.5230	0.029861
693.2192	0.031359
693.9155	0.028975
694.6119	0.028026
695.3083	0.028933
696.0049	0.025284
696.7016	0.030325
697.3983	0.032371
698.0951	0.033785
698.7920	0.031274
699.4890	0.027372
700.1861	0.027245
700.8833	0.025284
701.5806	0.023934
702.2779	0.024482
702.9753	0.026507
703.6729	0.024313
704.3705	0.022816
705.0682	0.018808
705.7660	0.019103
706.4638	0.025832
707.1618	0.031000
707.8599	0.030515
708.5580	0.032329
709.2562	0.028785
709.9545	0.028110
710.6529	0.029313
711.3514	0.025748
712.0500	0.022752
712.7486	0.025157
713.4474	0.027435
714.1462	0.028617
714.8451	0.028384
715.5441	0.029924
716.2432	0.025558
716.9424	0.023533
717.6416	0.021233
718.3410	0.024398
719.0404	0.025579
719.7399	0.024208
720.4395	0.024250
721.1392	0.025009
721.8390	0.023680
722.5388	0.022351
723.2388	0.022647
723.9388	0.023976
724.6389	0.020474
725.3391	0.025684
726.0394	0.028532
726.7398	0.026191
727.4403	0.025389
728.1408	0.026887
728.8414	0.025832
729.5421	0.030557
730.2429	0.030642
730.9438	0.035599
731.6448	0.034291
732.3458	0.034439
733.0470	0.033785
733.7482	0.037750
734.4495	0.043277
735.1509	0.038510
735.8524	0.040451
736.5539	0.038257
737.2556	0.039269
737.9573	0.034797
738.6591	0.033321
739.3610	0.038679
740.0630	0.035135
740.7651	0.031549
741.4672	0.028321
742.1695	0.029144
742.8718	0.026845
743.5742	0.026866
744.2767	0.024355
744.9792	0.024461
745.6819	0.023807
746.3846	0.022014
747.0874	0.023301
747.7903	0.026549
748.4933	0.023976
749.1964	0.026802
749.8995	0.031148
750.6028	0.033932
751.3061	0.031000
752.0095	0.034185
752.7130	0.028131
753.4166	0.030262
754.1202	0.035093
754.8239	0.034291
755.5278	0.035514
756.2317	0.039754
756.9356	0.041442
757.6397	0.051378
758.3438	0.048403
759.0481	0.045387
759.7524	0.050808
760.4568	0.052074
761.1613	0.049458
761.8658	0.043594
762.5705	0.039754
763.2752	0.041379
763.9800	0.040894
764.6849	0.048066
765.3898	0.047707
766.0949	0.041421
766.8000	0.033300
767.5052	0.030621
768.2105	0.034945
768.9159	0.041358
769.6214	0.037582
770.3269	0.037919
771.0325	0.040957
771.7382	0.037898
772.4440	0.033363
773.1499	0.033447
773.8558	0.031274
774.5618	0.026317
775.2679	0.023301
775.9741	0.021149
776.6804	0.020284
777.3868	0.019630
778.0932	0.020263
778.7997	0.022710
779.5063	0.025642
780.2130	0.023343
780.9197	0.024904
781.6265	0.029270
782.3335	0.028954
783.0405	0.027266
783.7475	0.028068
784.4547	0.025178
785.1619	0.024229
785.8692	0.024334
786.5766	0.022457
787.2841	0.020812
787.9917	0.024208
788.6993	0.026528
789.4070	0.023701
790.1148	0.023216
790.8227	0.019504
791.5306	0.020685
792.2387	0.018850
792.9468	0.019377
793.6550	0.019736
794.3632	0.026170
795.0716	0.026338
795.7800	0.023069
796.4885	0.018365
797.1971	0.018702
797.9058	0.018597
798.6145	0.018365
799.3233	0.018702
800.0322	0.016867
800.7412	0.016825
801.4503	0.015580
802.1594	0.014040
802.8686	0.013239
803.5779	0.014947
804.2873	0.014336
804.9968	0.014230
805.7063	0.014546
806.4159	0.019314
807.1256	0.020115
807.8354	0.018639
808.5452	0.018765
809.2551	0.018976
809.9651	0.016508
810.6752	0.016065
811.3853	0.016234
812.0956	0.012078
812.8059	0.014209
813.5163	0.014314
814.2267	0.014546
814.9373	0.012479
815.6479	0.012416
816.3586	0.011150
817.0694	0.012585
817.7802	0.011994
818.4912	0.009146
819.2022	0.009842
819.9133	0.010096
820.6244	0.012732
821.3357	0.013513
822.0470	0.010475
822.7584	0.008745
823.4698	0.008956
824.1814	0.009568
824.8930	0.008872
825.6047	0.010433
826.3165	0.010665
827.0283	0.010623
827.7402	0.011003
828.4522	0.011593
829.1643	0.010180
829.8765	0.010053
830.5887	0.005877
831.3010	0.008577
832.0134	0.005687
832.7259	0.006720
833.4384	0.007585
834.1510	0.007269
834.8637	0.006847
835.5765	0.008260
836.2893	0.008429
837.0022	0.006615
837.7152	0.005940
838.4283	0.004927
839.1414	0.006594
839.8546	0.007142
840.5679	0.005834
841.2813	0.004906
841.9947	0.004885
842.7082	0.003809
843.4218	0.003451
844.1355	0.004759
844.8492	0.003134
845.5631	0.005265
846.2770	0.004400
846.9909	0.004210
847.7050	0.004084
848.4191	0.003852
849.1333	0.004189
849.8475	0.004843
850.5619	0.003852
851.2763	0.003936
851.9908	0.004316
852.7053	0.008471
853.4200	0.010032
854.1347	0.010475
854.8495	0.011129
855.5643	0.011066
856.2792	0.011720
856.9942	0.009842
857.7093	0.008598
858.4245	0.007374
859.1397	0.008556
859.8550	0.006931
860.5704	0.006720
861.2858	0.006573
862.0013	0.005602
862.7169	0.005476
863.4326	0.004358
864.1483	0.005708
864.8642	0.004147
865.5800	0.004822
866.2960	0.003493
867.0120	0.003409
867.7281	0.004906
868.4443	0.003978
869.1606	0.003725
869.8769	0.004273
870.5933	0.003662
871.3097	0.004991
872.0263	0.005054
872.7429	0.004105
873.4596	0.003999
874.1763	0.004442
874.8932	0.005834
875.6101	0.004674
876.3270	0.004780
877.0441	0.004674
877.7612	0.005033
878.4784	0.005391
879.1957	0.005539
879.9130	0.005623
880.6304	0.008007
881.3479	0.007416
882.0654	0.005602
882.7831	0.004864
883.5007	0.006003
884.2185	0.004147
884.9363	0.006805
885.6542	0.005265
886.3722	0.005581
887.0903	0.005687
887.8084	0.004716
888.5266	0.003535
889.2448	0.004379
889.9632	0.003176
890.6816	0.001721
891.4001	0.003387
892.1186	0.005138
892.8372	0.002523
893.5559	0.003767
894.2747	0.003282
894.9935	0.003261
895.7124	0.003493
896.4314	0.004569
897.1504	0.003999
897.8695	0.005117
898.5887	0.003915
899.3079	0.003598
900.0272	0.003092
900.7466	0.005518
901.4661	0.004484
902.1856	0.003957
902.9052	0.002734
903.6249	0.002438
904.3446	0.003598
905.0644	0.004527
905.7843	0.004801
906.5043	0.005898
907.2243	0.002628
907.9444	0.003936
908.6645	0.002565
909.3847	0.003662
910.1050	0.003324
910.8254	0.002839
911.5458	0.002058
912.2663	0.004210
912.9869	0.004484
913.7075	0.001383
914.4283	0.003472
915.1490	0.002101
915.8699	0.002375
916.5908	0.002691
917.3118	0.002291
918.0328	0.003282
918.7539	0.002143
919.4751	0.003387
920.1964	0.001953
920.9177	0.003409
921.6391	0.001531
922.3606	0.003788
923.0821	0.002544
923.8037	0.002755
924.5254	0.002375
925.2471	0.003219
925.9689	0.003324
926.6908	0.002818
927.4127	-0.000241
928.1347	0.002902
928.8568	0.002544
929.5789	-0.000199
930.3011	0.002248
931.0234	0.001869
931.7457	0.000983
932.4681	0.002269
933.1906	0.000603
933.9131	0.001700
934.6358	0.001995
935.3584	0.002122
936.0812	0.002206
936.8040	0.002544
937.5269	-0.000030
938.2498	0.000898
938.9728	0.001109
939.6959	0.002417
940.4190	0.000287
941.1422	0.000561
941.8655	0.001784
942.5889	0.000582
943.3123	0.001953
944.0357	0.001173
944.7593	0.001594
945.4829	0.000877
946.2066	0.001932
946.9303	-0.000009
947.6541	0.000434
948.3780	0.000097
949.1019	0.000772
949.8259	-0.000220
950.5500	-0.000072
951.2741	0.001320
951.9983	0.001109
952.7226	0.000540
953.4469	0.000772
954.1713	0.000097
954.8958	0.000033
955.6203	0.001362
956.3449	0.000730
957.0696	0.000097
957.7943	0.001130
958.5191	-0.001085
959.2439	0.001468
959.9688	-0.000199
960.6938	0.000919
961.4189	0.001658
962.1440	0.001468
962.8692	-0.000283
963.5944	-0.000030
964.3197	0.000940
965.0451	-0.000199
965.7705	0.000708
966.4960	0.001679
967.2216	0.001805
967.9472	0.000202
968.6729	0.000793
969.3987	0.000730
970.1245	0.000751
970.8504	0.000983
971.5763	0.000118
972.3023	0.000012
973.0284	0.000814
973.7545	0.000392
974.4807	0.001510
975.2070	-0.000346
975.9333	0.000371
976.6597	0.000582
977.3862	0.001594
978.1127	0.000835
978.8393	0.000350
979.5659	0.000708
980.2926	-0.000473
981.0194	0.000455
981.7462	0.000645
982.4731	0.000223
983.2001	-0.000030
983.9271	0.001067
984.6542	0.000160
985.3814	0.000919
986.1086	-0.000262
986.8358	0.000223
987.5632	-0.000388
988.2906	0.001130
989.0180	0.000730
989.7456	0.000772
990.4732	0.000687
991.2008	0.000687
991.9285	-0.000156
992.6563	0.000012
993.3841	-0.000093
994.1120	0.000561
994.8400	-0.000747
995.5680	-0.000156
996.2961	-0.000536
997.0242	0.000054
997.7524	-0.001085
998.4807	-0.000030
999.2090	-0.000705
999.9374	0.000265
1000.67	0.001362
1001.39	0.000308
1002.12	0.000962
1002.85	0.000139
1003.58	0.000350
1004.31	-0.000958
1005.04	0.000160
1005.77	0.001151
1006.5	0.000413
1007.22	0.001004
1007.95	-0.000431
1008.68	-0.000705
1009.41	0.000287
1010.14	-0.000093
1010.87	0.000772
1011.6	-0.000241
1012.33	0.000413
1013.06	-0.001338
1013.79	0.002122
1014.52	-0.000810
1015.25	0.001615
1015.98	0.000455
1016.71	0.000033
1017.44	0.001637
1018.17	0.000751
1018.9	0.000033
1019.63	0.001109
1020.36	-0.000431
1021.09	0.001025
1021.82	-0.001274
1022.55	0.001151
1023.03	-0.000895