File: Auto_Polymerization/Data/UV_VIS_Spectra/MRG-061-F-4_spectra_while_stopped_with_alu_foil/spectrum_2025-06-20_08-46-12.txt
# Wavelength (nm)	Intensity (a.u.)
197.7802	0.001749
198.3922	0.000040
199.0044	-0.000149
199.6168	0.000673
200.2292	0.000568
200.8418	-0.001014
201.4546	0.000990
202.0674	0.000294
202.6805	0.000589
203.2936	-0.000677
203.9069	0.000251
204.5203	0.001032
205.1338	0.001222
205.7475	0.000652
206.3614	0.000990
206.9753	-0.000993
207.5894	0.000251
208.2036	0.000209
208.8180	0.000926
209.4325	0.000568
210.0471	-0.000360
210.6618	0.000715
211.2767	0.000652
211.8918	-0.000044
212.5069	0.000694
213.1222	0.000673
213.7376	0.002276
214.3532	-0.000360
214.9689	0.001243
215.5847	-0.001352
216.2007	0.000736
216.8168	0.000568
217.4330	0.000167
218.0494	0.000610
218.6659	0.000357
219.2825	0.000209
219.8992	0.000821
220.5161	-0.001288
221.1332	0.000589
221.7503	0.000209
222.3676	0.000209
222.9850	0.000863
223.6026	-0.000445
224.2203	0.000188
224.8381	0.001222
225.4561	0.001833
226.0742	0.000294
226.6924	-0.000107
227.3107	0.000504
227.9292	-0.000128
228.5478	0.001285
229.1666	-0.000487
229.7855	0.001833
230.4045	0.000715
231.0236	-0.000424
231.6429	-0.000023
232.2623	0.000652
232.8818	0.000104
233.5015	0.000610
234.1213	-0.000128
234.7413	0.001664
235.3613	-0.001099
235.9815	0.000800
236.6018	0.000842
237.2223	0.000526
237.8429	0.000146
238.4636	0.000336
239.0845	0.000188
239.7055	0.001074
240.3266	0.000568
240.9478	-0.000613
241.5692	0.000272
242.1907	0.000610
242.8124	0.000821
243.4341	0.000167
244.0560	0.001095
244.6781	0.002234
245.3002	-0.000656
245.9225	0.000399
246.5449	0.000272
247.1675	0.000863
247.7902	0.000040
248.4130	0.000462
249.0359	0.000125
249.6590	0.000652
250.2822	0.001707
250.9056	0.001243
251.5290	0.000294
252.1526	0.000884
252.7763	-0.000508
253.4002	0.001960
254.0242	0.000842
254.6483	0.000758
255.2725	0.000104
255.8969	0.001179
256.5214	0.001200
257.1460	0.000926
257.7708	-0.000360
258.3957	-0.000403
259.0207	0.001074
259.6459	0.000736
260.2711	0.001137
260.8965	0.000104
261.5221	-0.000255
262.1477	0.000504
262.7735	-0.000930
263.3995	-0.000276
264.0255	0.000272
264.6517	0.001285
265.2780	-0.000888
265.9044	0.000315
266.5310	0.000610
267.1577	0.000610
267.7845	0.000294
268.4114	0.000294
269.0385	0.000315
269.6657	0.001327
270.2931	0.000336
270.9205	0.000694
271.5481	-0.000740
272.1758	0.001411
272.8037	0.001158
273.4316	0.001918
274.0597	0.000842
274.6880	0.001032
275.3163	-0.000128
275.9448	0.000905
276.5734	-0.001288
277.2022	0.002318
277.8310	0.000062
278.4600	0.000146
279.0891	0.000104
279.7184	0.001095
280.3477	-0.000149
280.9772	-0.000635
281.6069	0.000526
282.2366	0.000357
282.8665	-0.001288
283.4965	0.000800
284.1266	-0.000803
284.7569	0.001243
285.3873	-0.000339
286.0178	-0.000403
286.6484	0.000167
287.2792	0.000673
287.9101	-0.001267
288.5411	0.000019
289.1723	0.000758
289.8035	0.000821
290.4349	-0.000888
291.0665	0.000357
291.6981	-0.000381
292.3299	0.000315
292.9618	0.000526
293.5938	0.000441
294.2260	0.000019
294.8582	0.001032
295.4906	0.000420
296.1232	0.001306
296.7558	0.000483
297.3886	0.000526
298.0215	-0.000550
298.6545	0.002234
299.2877	0.000758
299.9210	-0.000888
300.5544	0.000336
301.1879	0.000968
301.8215	-0.000023
302.4553	0.000230
303.0892	0.000315
303.7233	0.000631
304.3574	0.000800
304.9917	0.000019
305.6261	0.000188
306.2606	0.001664
306.8953	0.000146
307.5301	0.001580
308.1650	-0.001605
308.8000	0.000926
309.4351	-0.000065
310.0704	0.000568
310.7058	-0.000656
311.3413	0.000947
311.9770	0.000399
312.6127	0.000399
313.2486	0.000040
313.8846	-0.000613
314.5208	0.000420
315.1570	-0.000782
315.7934	0.000504
316.4299	0.001686
317.0666	0.001833
317.7033	0.001158
318.3402	-0.000149
318.9772	-0.000149
319.6143	-0.000023
320.2516	0.000040
320.8890	-0.000339
321.5265	0.000019
322.1641	0.000547
322.8018	-0.000170
323.4397	-0.001225
324.0777	-0.000529
324.7158	-0.000192
325.3540	-0.000487
325.9924	0.000610
326.6308	0.000568
327.2694	-0.000318
327.9082	0.000905
328.5470	0.000884
329.1860	0.000504
329.8251	0.000083
330.4643	-0.000803
331.1036	-0.000318
331.7431	0.000779
332.3826	-0.000719
333.0223	0.000884
333.6622	-0.000065
334.3021	0.000758
334.9422	-0.000065
335.5823	-0.001014
336.2227	-0.000318
336.8631	0.001875
337.5036	-0.000276
338.1443	-0.000613
338.7851	-0.000719
339.4260	0.000568
340.0670	-0.000487
340.7082	0.001454
341.3495	-0.001267
341.9909	0.002403
342.6324	0.000083
343.2740	0.000272
343.9158	0.000926
344.5577	0.001053
345.1997	-0.000276
345.8418	0.002107
346.4840	0.000019
347.1264	-0.000613
347.7689	0.000715
348.4115	0.001306
349.0542	0.000884
349.6971	-0.000318
350.3400	0.000652
350.9831	0.001411
351.6263	-0.000740
352.2696	-0.000149
352.9131	0.000526
353.5566	0.000294
354.2003	-0.000466
354.8441	0.001095
355.4881	0.000779
356.1321	0.000083
356.7763	-0.000508
357.4206	0.001264
358.0650	0.000736
358.7095	0.001580
359.3541	0.000779
359.9989	0.000863
360.6438	-0.000656
361.2888	0.000462
361.9339	0.000526
362.5791	0.000610
363.2245	0.000504
363.8699	0.000568
364.5155	0.002234
365.1612	0.000399
365.8071	-0.000466
366.4530	0.000779
367.0991	0.000568
367.7453	0.001496
368.3916	0.001918
369.0380	0.001011
369.6845	0.000800
370.3312	0.000104
370.9780	0.000947
371.6249	-0.000023
372.2719	0.000040
372.9190	0.000040
373.5663	0.000610
374.2136	0.000673
374.8611	-0.000318
375.5087	-0.000972
376.1564	0.001011
376.8043	0.000990
377.4522	-0.000930
378.1003	0.001643
378.7485	0.000547
379.3968	0.000884
380.0452	0.000842
380.6938	0.000062
381.3424	0.001496
381.9912	0.000905
382.6401	0.000715
383.2891	0.000779
383.9382	0.000947
384.5875	0.001011
385.2368	0.000736
385.8863	0.000694
386.5359	0.000673
387.1856	0.000526
387.8355	0.001074
388.4854	0.003035
389.1355	0.001074
389.7856	0.002192
390.4359	0.002550
391.0863	0.004280
391.7369	0.005039
392.3875	0.004385
393.0383	0.005925
393.6891	0.005313
394.3401	0.006073
394.9912	0.007781
395.6425	0.008013
396.2938	0.007612
396.9453	0.009426
397.5968	0.010270
398.2485	0.010164
398.9003	0.011704
399.5522	0.013961
400.2043	0.011282
400.8564	0.012210
401.5087	0.014425
402.1610	0.015269
402.8135	0.015269
403.4661	0.015395
404.1189	0.014720
404.7717	0.014847
405.4246	0.017694
406.0777	0.021322
406.7309	0.018643
407.3842	0.017694
408.0376	0.016977
408.6911	0.018812
409.3448	0.017736
409.9985	0.019487
410.6524	0.021322
411.3064	0.018032
411.9605	0.019677
412.6147	0.021575
413.2690	0.018812
413.9234	0.020837
414.5780	0.020373
415.2326	0.020078
415.8874	0.022419
416.5423	0.022250
417.1973	0.021132
417.8524	0.021491
418.5077	0.021638
419.1630	0.021786
419.8185	0.022904
420.4741	0.023178
421.1298	0.024823
421.7856	0.026721
422.4415	0.024739
423.0975	0.025920
423.7536	0.025287
424.4099	0.024422
425.0663	0.025140
425.7228	0.022967
426.3793	0.021617
427.0361	0.021617
427.6929	0.023600
428.3498	0.024380
429.0068	0.025287
429.6640	0.027228
430.3213	0.026848
430.9787	0.027903
431.6362	0.021174
432.2938	0.023473
432.9515	0.021913
433.6093	0.024127
434.2673	0.026553
434.9253	0.023769
435.5835	0.024465
436.2418	0.023769
436.9001	0.025161
437.5586	0.021723
438.2173	0.021913
438.8760	0.024190
439.5348	0.023262
440.1938	0.023811
440.8528	0.022693
441.5120	0.028788
442.1713	0.027228
442.8307	0.024275
443.4902	0.025329
444.1498	0.027523
444.8095	0.025772
445.4694	0.024444
446.1293	0.022756
446.7894	0.023705
447.4496	0.022630
448.1098	0.022102
448.7702	0.022440
449.4307	0.023368
450.0914	0.021575
450.7521	0.018475
451.4129	0.020584
452.0739	0.020668
452.7349	0.019508
453.3961	0.017167
454.0574	0.017504
454.7188	0.016576
455.3803	0.017209
456.0419	0.017631
456.7036	0.015754
457.3654	0.015901
458.0274	0.017525
458.6894	0.018664
459.3516	0.017779
460.0138	0.018454
460.6762	0.015965
461.3387	0.014509
462.0013	0.013729
462.6640	0.013223
463.3268	0.014404
463.9897	0.012506
464.6528	0.014573
465.3159	0.014383
465.9792	0.014762
466.6425	0.012105
467.3060	0.010143
467.9696	0.010333
468.6333	0.011831
469.2970	0.009827
469.9610	0.007739
470.6250	0.008477
471.2891	0.007444
471.9533	0.008013
472.6177	0.008351
473.2821	0.008393
473.9467	0.008119
474.6113	0.007254
475.2761	0.007380
475.9410	0.006705
476.6060	0.007233
477.2711	0.006326
477.9363	0.006347
478.6016	0.005756
479.2670	0.006790
479.9325	0.006790
480.5982	0.009068
481.2639	0.005988
481.9298	0.007486
482.5957	0.005208
483.2618	0.006621
483.9280	0.004301
484.5943	0.007106
485.2606	0.005651
485.9271	0.017040
486.5937	0.012379
487.2605	0.008161
487.9273	0.004217
488.5942	0.003710
489.2612	0.003394
489.9284	0.003352
490.5956	0.005187
491.2630	0.005229
491.9304	0.004575
492.5980	0.003099
493.2657	0.003267
493.9334	0.003267
494.6013	0.003014
495.2693	0.003963
495.9374	0.001664
496.6056	0.003858
497.2739	0.004364
497.9423	0.004006
498.6109	0.002846
499.2795	0.002698
499.9482	0.002930
500.6171	0.004470
501.2860	0.003246
501.9551	0.003394
502.6242	0.003394
503.2935	0.002002
503.9628	0.003521
504.6323	0.002044
505.3019	0.001496
505.9716	0.003499
506.6414	0.003436
507.3113	0.003099
507.9813	0.001496
508.6514	0.003162
509.3216	0.001939
509.9919	0.003963
510.6623	0.003014
511.3329	0.002782
512.0035	0.002276
512.6742	0.002382
513.3451	0.002571
514.0160	0.003753
514.6871	0.003183
515.3582	0.003499
516.0295	0.002656
516.7008	0.002782
517.3723	0.002698
518.0439	0.003162
518.7155	0.002403
519.3873	0.002888
520.0592	0.002107
520.7312	0.002255
521.4033	0.002740
522.0755	0.002213
522.7478	0.002403
523.4202	0.003014
524.0927	0.003099
524.7653	0.002318
525.4380	0.002951
526.1108	0.002424
526.7837	0.003816
527.4568	0.003731
528.1299	0.004006
528.8031	0.002972
529.4765	0.004533
530.1499	0.004364
530.8234	0.004322
531.4971	0.005229
532.1708	0.004976
532.8447	0.005039
533.5186	0.007233
534.1927	0.005166
534.8668	0.007254
535.5411	0.006009
536.2155	0.006811
536.8899	0.007127
537.5645	0.007022
538.2392	0.008920
538.9139	0.009637
539.5888	0.009068
540.2638	0.008119
540.9389	0.009279
541.6140	0.009131
542.2893	0.010586
542.9647	0.010734
543.6402	0.010734
544.3158	0.012231
544.9915	0.012653
545.6673	0.010228
546.3432	0.012400
547.0192	0.013792
547.6953	0.014573
548.3715	0.015923
549.0478	0.017736
549.7242	0.015374
550.4007	0.016028
551.0773	0.014552
551.7540	0.015437
552.4308	0.020837
553.1077	0.019234
553.7847	0.020584
554.4618	0.019044
555.1390	0.019234
555.8163	0.021406
556.4937	0.021913
557.1712	0.021659
557.8488	0.022524
558.5266	0.021744
559.2044	0.021723
559.8823	0.022841
560.5603	0.028873
561.2384	0.029147
561.9166	0.029780
562.5949	0.029927
563.2733	0.029653
563.9519	0.031467
564.6305	0.031973
565.3092	0.034230
565.9880	0.033850
566.6669	0.033724
567.3459	0.040853
568.0250	0.044881
568.7043	0.051652
569.3836	0.065446
570.0630	0.084049
570.7425	0.089048
571.4221	0.106680
572.1018	0.115961
572.7816	0.101407
573.4615	0.111679
574.1415	0.132982
574.8216	0.141524
575.5018	0.143823
576.1821	0.127730
576.8626	0.144624
577.5431	0.159452
578.2237	0.201129
578.9044	0.163248
579.5851	0.163269
580.2660	0.171073
580.9470	0.168205
581.6281	0.266176
582.3093	0.249218
582.9906	0.196341
583.6720	0.153841
584.3535	0.156119
585.0351	0.186428
585.7167	0.194570
586.3985	0.168817
587.0804	0.173183
587.7624	0.183053
588.4445	0.161561
589.1266	0.143802
589.8089	0.131147
590.4913	0.120727
591.1737	0.108304
591.8563	0.109085
592.5389	0.126907
593.2217	0.169597
593.9046	0.155044
594.5875	0.141334
595.2705	0.157322
595.9537	0.138698
596.6369	0.114548
597.3203	0.122415
598.0037	0.116678
598.6872	0.127624
599.3709	0.147872
600.0546	0.151859
600.7384	0.150678
601.4223	0.150277
602.1064	0.137137
602.7905	0.137390
603.4747	0.154622
604.1590	0.142557
604.8434	0.126485
605.5279	0.132349
606.2125	0.141714
606.8972	0.126886
607.5819	0.132855
608.2668	0.119588
608.9518	0.116467
609.6369	0.109296
610.3220	0.123237
611.0073	0.117184
611.6927	0.112797
612.3781	0.102926
613.0637	0.100986
613.7493	0.100901
614.4351	0.105267
615.1209	0.101281
615.8068	0.108304
616.4929	0.097252
617.1790	0.085504
617.8652	0.091368
618.5515	0.083901
619.2379	0.074853
619.9244	0.077131
620.6110	0.076751
621.2977	0.058633
621.9845	0.066606
622.6714	0.069938
623.3584	0.074515
624.0454	0.070466
624.7326	0.074937
625.4199	0.069411
626.1072	0.058612
626.7947	0.057537
627.4822	0.056904
628.1698	0.053023
628.8576	0.046569
629.5454	0.052580
630.2333	0.049501
630.9213	0.044692
631.6094	0.041022
632.2976	0.042814
632.9859	0.037288
633.6743	0.034673
634.3628	0.034926
635.0514	0.033176
635.7400	0.034357
636.4288	0.036192
637.1177	0.034525
637.8066	0.033154
638.4957	0.033344
639.1848	0.034863
639.8740	0.033752
640.5633	0.032060
641.2528	0.030947
641.9423	0.025710
642.6319	0.022103
643.3216	0.024765
644.0113	0.024648
644.7012	0.020872
645.3912	0.021995
646.0812	0.021532
646.7714	0.019716
647.4616	0.017207
648.1520	0.022925
648.8424	0.026434
649.5329	0.027176
650.2236	0.025732
650.9143	0.022014
651.6051	0.024465
652.2960	0.026528
652.9870	0.025401
653.6780	0.028192
654.3692	0.028056
655.0605	0.048022
655.7518	0.786405
656.4433	1.000000
657.1348	0.699245
657.8264	0.427580
658.5181	0.322392
659.2099	0.232142
659.9018	0.056401
660.5938	0.022138
661.2859	0.018494
661.9781	0.018508
662.6704	0.018116
663.3627	0.016309
664.0552	0.017330
664.7477	0.018875
665.4403	0.020085
666.1330	0.019238
666.8259	0.017817
667.5188	0.015760
668.2117	0.016882
668.9048	0.016155
669.5980	0.019487
670.2913	0.017694
670.9846	0.017462
671.6781	0.024212
672.3716	0.028135
673.0652	0.027460
673.7589	0.025161
674.4527	0.021238
675.1466	0.021470
675.8406	0.020753
676.5347	0.019192
677.2288	0.019993
677.9231	0.023642
678.6174	0.024275
679.3119	0.026869
680.0064	0.029485
680.7010	0.028240
681.3957	0.029801
682.0905	0.025730
682.7854	0.024422
683.4803	0.024697
684.1754	0.029042
684.8705	0.031994
685.5658	0.036867
686.2611	0.035812
686.9565	0.034230
687.6520	0.034251
688.3476	0.032564
689.0433	0.031446
689.7390	0.027418
690.4349	0.027523
691.1308	0.031446
691.8269	0.032121
692.5230	0.030265
693.2192	0.031404
693.9155	0.027903
694.6119	0.026215
695.3083	0.029316
696.0049	0.024676
696.7016	0.027270
697.3983	0.031362
698.0951	0.031256
698.7920	0.030771
699.4890	0.027586
700.1861	0.027017
700.8833	0.023663
701.5806	0.023684
702.2779	0.025772
702.9753	0.024380
703.6729	0.024401
704.3705	0.021765
705.0682	0.018728
705.7660	0.019909
706.4638	0.024064
707.1618	0.029506
707.8599	0.031066
708.5580	0.030645
709.2562	0.029695
709.9545	0.028092
710.6529	0.027860
711.3514	0.025013
712.0500	0.024380
712.7486	0.023009
713.4474	0.024612
714.1462	0.027523
714.8451	0.029759
715.5441	0.027987
716.2432	0.026131
716.9424	0.023262
717.6416	0.020795
718.3410	0.023368
719.0404	0.023473
719.7399	0.025224
720.4395	0.022609
721.1392	0.024380
721.8390	0.025308
722.5388	0.021491
723.2388	0.022250
723.9388	0.024908
724.6389	0.020710
725.3391	0.025667
726.0394	0.028493
726.7398	0.026553
727.4403	0.026068
728.1408	0.027101
728.8414	0.026131
729.5421	0.029252
730.2429	0.029864
730.9438	0.034104
731.6448	0.031720
732.3458	0.033028
733.0470	0.033724
733.7482	0.038048
734.4495	0.044270
735.1509	0.038786
735.8524	0.039208
736.5539	0.040136
737.2556	0.038913
737.9573	0.034989
738.6591	0.032522
739.3610	0.038153
740.0630	0.036065
740.7651	0.030434
741.4672	0.027776
742.1695	0.026932
742.8718	0.026637
743.5742	0.026616
744.2767	0.025730
744.9792	0.024612
745.6819	0.023558
746.3846	0.025983
747.0874	0.021681
747.7903	0.023958
748.4933	0.024001
749.1964	0.024992
749.8995	0.029949
750.6028	0.035327
751.3061	0.032796
752.0095	0.032121
752.7130	0.030940
753.4166	0.030771
754.1202	0.033070
754.8239	0.034568
755.5278	0.034083
756.2317	0.038301
756.9356	0.041950
757.6397	0.049606
758.3438	0.045493
759.0481	0.046653
759.7524	0.048467
760.4568	0.052496
761.1613	0.048425
761.8658	0.042519
762.5705	0.039060
763.2752	0.040305
763.9800	0.040916
764.6849	0.045578
765.3898	0.049100
766.0949	0.040452
766.8000	0.033787
767.5052	0.030054
768.2105	0.033555
768.9159	0.039292
769.6214	0.037246
770.3269	0.035685
771.0325	0.040515
771.7382	0.035411
772.4440	0.031488
773.1499	0.031910
773.8558	0.030138
774.5618	0.027882
775.2679	0.025182
775.9741	0.022440
776.6804	0.021870
777.3868	0.019993
778.0932	0.020858
778.7997	0.022630
779.5063	0.024233
780.2130	0.023305
780.9197	0.024739
781.6265	0.028683
782.3335	0.029843
783.0405	0.026911
783.7475	0.028367
784.4547	0.024760
785.1619	0.021723
785.8692	0.023347
786.5766	0.024380
787.2841	0.023030
787.9917	0.024654
788.6993	0.024781
789.4070	0.023262
790.1148	0.023136
790.8227	0.019972
791.5306	0.019592
792.2387	0.018285
792.9468	0.017863
793.6550	0.019761
794.3632	0.026236
795.0716	0.026679
795.7800	0.025561
796.4885	0.019255
797.1971	0.018369
797.9058	0.019909
798.6145	0.019213
799.3233	0.018559
800.0322	0.017926
800.7412	0.016998
801.4503	0.017230
802.1594	0.015332
802.8686	0.013413
803.5779	0.015458
804.2873	0.014320
804.9968	0.013645
805.7063	0.014298
806.4159	0.019614
807.1256	0.018707
807.8354	0.018496
808.5452	0.019993
809.2551	0.020457
809.9651	0.018116
810.6752	0.015353
811.3853	0.014847
812.0956	0.012316
812.8059	0.011071
813.5163	0.013518
814.2267	0.014931
814.9373	0.014868
815.6479	0.012042
816.3586	0.011894
817.0694	0.011071
817.7802	0.012421
818.4912	0.012042
819.2022	0.010713
819.9133	0.010207
820.6244	0.011704
821.3357	0.012843
822.0470	0.010502
822.7584	0.011535
823.4698	0.010333
824.1814	0.008941
824.8930	0.009110
825.6047	0.010396
826.3165	0.008583
827.0283	0.011620
827.7402	0.011071
828.4522	0.010439
829.1643	0.011156
829.8765	0.011704
830.5887	0.007401
831.3010	0.008013
832.0134	0.005777
832.7259	0.006178
833.4384	0.007022
834.1510	0.007992
834.8637	0.008203
835.5765	0.008013
836.2893	0.007022
837.0022	0.006136
837.7152	0.004470
838.4283	0.006494
839.1414	0.005524
839.8546	0.006874
840.5679	0.005756
841.2813	0.004744
841.9947	0.005609
842.7082	0.005039
843.4218	0.004575
844.1355	0.005609
844.8492	0.003563
845.5631	0.004765
846.2770	0.004765
846.9909	0.003921
847.7050	0.004681
848.4191	0.004575
849.1333	0.005166
849.8475	0.003499
850.5619	0.003816
851.2763	0.004195
851.9908	0.005925
852.7053	0.006241
853.4200	0.011557
854.1347	0.012463
854.8495	0.012611
855.5643	0.010460
856.2792	0.010080
856.9942	0.011050
857.7093	0.008182
858.4245	0.008076
859.1397	0.006811
859.8550	0.006326
860.5704	0.007106
861.2858	0.005609
862.0013	0.004681
862.7169	0.004174
863.4326	0.006094
864.1483	0.006073
864.8642	0.003985
865.5800	0.004554
866.2960	0.003078
867.0120	0.006030
867.7281	0.005313
868.4443	0.004111
869.1606	0.003099
869.8769	0.004512
870.5933	0.004174
871.3097	0.004301
872.0263	0.002846
872.7429	0.004132
873.4596	0.004111
874.1763	0.003879
874.8932	0.005124
875.6101	0.005735
876.3270	0.005630
877.0441	0.005060
877.7612	0.005419
878.4784	0.004807
879.1957	0.006284
879.9130	0.004069
880.6304	0.004744
881.3479	0.006600
882.0654	0.005946
882.7831	0.003753
883.5007	0.006516
884.2185	0.006262
884.9363	0.005967
885.6542	0.005630
886.3722	0.006284
887.0903	0.004870
887.8084	0.004491
888.5266	0.004596
889.2448	0.003647
889.9632	0.004195
890.6816	0.004322
891.4001	0.003647
892.1186	0.004786
892.8372	0.003837
893.5559	0.004934
894.2747	0.003057
894.9935	0.004575
895.7124	0.002740
896.4314	0.004259
897.1504	0.003900
897.8695	0.003183
898.5887	0.003858
899.3079	0.002698
900.0272	0.003837
900.7466	0.003795
901.4661	0.004449
902.1856	0.003584
902.9052	0.003605
903.6249	0.003774
904.3446	0.004301
905.0644	0.005461
905.7843	0.003563
906.5043	0.003731
907.2243	0.003774
907.9444	0.001981
908.6645	0.003942
909.3847	0.003774
910.1050	0.002846
910.8254	0.003816
911.5458	0.002740
912.2663	0.003478
912.9869	0.002951
913.7075	0.002297
914.4283	0.002403
915.1490	0.004554
915.8699	0.003120
916.5908	0.003900
917.3118	0.003478
918.0328	0.003267
918.7539	0.003078
919.4751	0.003542
920.1964	0.001875
920.9177	0.003267
921.6391	0.002951
922.3606	0.002635
923.0821	0.002888
923.8037	0.003816
924.5254	0.002086
925.2471	0.003521
925.9689	0.003626
926.6908	0.002719
927.4127	0.000715
928.1347	0.003521
928.8568	0.000589
929.5789	0.001960
930.3011	0.002635
931.0234	0.003415
931.7457	0.001664
932.4681	0.001032
933.1906	0.000736
933.9131	0.000547
934.6358	0.002867
935.3584	0.001749
936.0812	0.002234
936.8040	0.002234
937.5269	0.002234
938.2498	0.001032
938.9728	0.002276
939.6959	0.001833
940.4190	0.001158
941.1422	0.001200
941.8655	0.001411
942.5889	0.000441
943.3123	0.000758
944.0357	0.001327
944.7593	0.002192
945.4829	0.001728
946.2066	0.001222
946.9303	-0.000128
947.6541	-0.000297
948.3780	0.000230
949.1019	0.000420
949.8259	0.000947
950.5500	0.000504
951.2741	-0.000107
951.9983	0.001074
952.7226	0.001074
953.4469	0.000062
954.1713	-0.000930
954.8958	0.001686
955.6203	-0.000065
956.3449	0.001411
957.0696	0.001074
957.7943	0.000526
958.5191	0.000062
959.2439	0.001285
959.9688	0.000357
960.6938	0.000947
961.4189	0.000336
962.1440	0.001348
962.8692	0.000420
963.5944	0.001601
964.3197	0.000019
965.0451	-0.000213
965.7705	-0.000845
966.4960	0.001369
967.2216	0.001517
967.9472	0.000357
968.6729	0.000990
969.3987	0.000230
970.1245	0.001390
970.8504	0.000483
971.5763	0.000188
972.3023	0.000209
973.0284	-0.000234
973.7545	0.000483
974.4807	-0.000529
975.2070	0.001559
975.9333	-0.000318
976.6597	0.000589
977.3862	-0.000403
978.1127	0.001960
978.8393	0.002698
979.5659	0.001580
980.2926	0.000589
981.0194	0.001791
981.7462	0.000652
982.4731	0.000336
983.2001	-0.000065
983.9271	0.000610
984.6542	0.000315
985.3814	0.000610
986.1086	-0.000445
986.8358	0.000104
987.5632	-0.000845
988.2906	0.000905
989.0180	0.000694
989.7456	0.000736
990.4732	-0.001077
991.2008	0.000568
991.9285	0.000104
992.6563	0.000040
993.3841	0.001243
994.1120	0.000694
994.8400	-0.000445
995.5680	-0.000170
996.2961	0.000104
997.0242	-0.000107
997.7524	0.000336
998.4807	0.000863
999.2090	-0.000002
999.9374	0.000104
1000.67	-0.000002
1001.39	0.000272
1002.12	-0.000613
1002.85	0.000884
1003.58	0.000610
1004.31	-0.000867
1005.04	-0.000529
1005.77	0.000884
1006.5	-0.000023
1007.22	-0.000930
1007.95	-0.000867
1008.68	0.000441
1009.41	0.000863
1010.14	-0.000888
1010.87	0.000673
1011.6	0.000146
1012.33	0.000863
1013.06	-0.000360
1013.79	0.000990
1014.52	0.000251
1015.25	0.000589
1015.98	0.000040
1016.71	0.000462
1017.44	-0.000972
1018.17	-0.000255
1018.9	-0.000909
1019.63	0.000926
1020.36	-0.000403
1021.09	-0.001668
1021.82	0.001053
1022.55	0.000294
1023.03	-0.001183