File: Auto_Polymerization/Data/UV_VIS_Spectra/MRG-061-F-4_spectra_while_stopped_with_alu_foil/spectrum_2025-06-20_08-41-04.txt
# Wavelength (nm)	Intensity (a.u.)
197.7802	0.001322
198.3922	0.000457
199.0044	0.001933
199.6168	-0.000766
200.2292	0.000541
200.8418	-0.000218
201.4546	0.000794
202.0674	0.000225
202.6805	0.000267
203.2936	0.001195
203.9069	0.000183
204.5203	-0.001146
205.1338	0.001153
205.7475	-0.000344
206.3614	0.001701
206.9753	0.000668
207.5894	0.001322
208.2036	-0.001062
208.8180	0.000309
209.4325	0.000794
210.0471	0.001701
210.6618	0.000562
211.2767	0.001174
211.8918	0.000963
212.5069	0.000879
213.1222	-0.000323
213.7376	0.001343
214.3532	0.001090
214.9689	0.002039
215.5847	0.000309
216.2007	0.001596
216.8168	0.000921
217.4330	-0.000070
218.0494	-0.000808
218.6659	0.001069
219.2825	-0.000661
219.8992	0.000942
220.5161	-0.001188
221.1332	0.000373
221.7503	-0.000450
222.3676	0.000710
222.9850	-0.000091
223.6026	0.000141
224.2203	-0.000112
224.8381	0.000984
225.4561	-0.001294
226.0742	0.001090
226.6924	0.001933
227.3107	0.000352
227.9292	-0.000007
228.5478	0.000816
229.1666	-0.000724
229.7855	0.000246
230.4045	-0.000576
231.0236	0.000077
231.6429	-0.000366
232.2623	0.001680
232.8818	-0.000091
233.5015	-0.000766
234.1213	0.001743
234.7413	-0.000998
235.3613	-0.000387
235.9815	-0.001336
236.6018	0.001005
237.2223	0.000858
237.8429	0.000373
238.4636	0.001026
239.0845	0.001132
239.7055	0.000035
240.3266	0.001216
240.9478	0.000415
241.5692	-0.000513
242.1907	0.000794
242.8124	0.000584
243.4341	-0.000429
244.0560	0.000415
244.6781	0.001174
245.3002	0.000162
245.9225	-0.000808
246.5449	-0.000619
247.1675	-0.000134
247.7902	0.000394
248.4130	-0.000091
249.0359	-0.000112
249.6590	-0.000007
250.2822	0.000921
250.9056	0.002292
251.5290	0.000373
252.1526	-0.000344
252.7763	-0.000366
253.4002	0.001427
254.0242	0.000246
254.6483	0.000689
255.2725	0.000352
255.8969	-0.000323
256.5214	0.001132
257.1460	-0.000260
257.7708	0.000626
258.3957	0.000141
259.0207	0.001533
259.6459	0.001933
260.2711	0.000752
260.8965	0.001786
261.5221	-0.000049
262.1477	0.000330
262.7735	0.000352
263.3995	-0.000366
264.0255	0.000710
264.6517	0.000879
265.2780	0.000794
265.9044	0.001933
266.5310	-0.000134
267.1577	-0.000429
267.7845	-0.000049
268.4114	0.001891
269.0385	0.000183
269.6657	0.001174
270.2931	0.000352
270.9205	0.000668
271.5481	0.001322
272.1758	-0.000429
272.8037	-0.000851
273.4316	-0.000218
274.0597	0.000710
274.6880	0.001406
275.3163	0.000499
275.9448	0.001111
276.5734	-0.001378
277.2022	0.001216
277.8310	-0.000429
278.4600	0.001132
279.0891	0.001469
279.7184	0.001216
280.3477	-0.000260
280.9772	0.000752
281.6069	0.000014
282.2366	0.002693
282.8665	-0.000387
283.4965	0.000942
284.1266	0.000120
284.7569	0.000562
285.3873	-0.000513
286.0178	0.001111
286.6484	0.000288
287.2792	0.001047
287.9101	0.000373
288.5411	0.000605
289.1723	-0.000661
289.8035	0.000141
290.4349	-0.000914
291.0665	-0.000787
291.6981	-0.000070
292.3299	0.001047
292.9618	-0.000134
293.5938	0.000436
294.2260	-0.000998
294.8582	0.000816
295.4906	0.000352
296.1232	0.001322
296.7558	-0.000134
297.3886	0.001153
298.0215	0.000984
298.6545	0.000942
299.2877	0.000267
299.9210	0.000373
300.5544	0.000626
301.1879	-0.000197
301.8215	0.000478
302.4553	0.001743
303.0892	-0.000534
303.7233	0.000267
304.3574	0.000352
304.9917	-0.000471
305.6261	0.000499
306.2606	-0.000661
306.8953	-0.002032
307.5301	0.000689
308.1650	0.000647
308.8000	0.002292
309.4351	0.001258
310.0704	0.000330
310.7058	-0.000091
311.3413	-0.000598
311.9770	0.001258
312.6127	-0.000366
313.2486	0.001554
313.8846	-0.000134
314.5208	0.000288
315.1570	0.001912
315.7934	0.000731
316.4299	0.002587
317.0666	0.001490
317.7033	0.001659
318.3402	0.000162
318.9772	0.001026
319.6143	0.000120
320.2516	-0.000070
320.8890	0.000436
321.5265	0.001174
322.1641	-0.000091
322.8018	0.001469
323.4397	-0.000281
324.0777	0.000436
324.7158	0.001701
325.3540	0.000056
325.9924	-0.000007
326.6308	0.000837
327.2694	0.001511
327.9082	0.000394
328.5470	0.000731
329.1860	0.001343
329.8251	-0.000555
330.4643	0.001849
331.1036	-0.001062
331.7431	0.000499
332.3826	-0.000471
333.0223	-0.000260
333.6622	0.000900
334.3021	0.000584
334.9422	-0.000007
335.5823	0.001153
336.2227	0.001026
336.8631	0.000963
337.5036	-0.000112
338.1443	-0.000197
338.7851	0.000330
339.4260	0.001511
340.0670	0.000056
340.7082	0.000373
341.3495	-0.000028
341.9909	-0.000176
342.6324	0.001765
343.2740	-0.000513
343.9158	-0.001209
344.5577	-0.000323
345.1997	-0.000851
345.8418	0.000309
346.4840	0.000626
347.1264	0.000921
347.7689	0.000963
348.4115	0.000520
349.0542	-0.000513
349.6971	0.000710
350.3400	-0.000619
350.9831	-0.000007
351.6263	-0.000387
352.2696	0.000626
352.9131	-0.000429
353.5566	0.001322
354.2003	-0.000640
354.8441	0.001406
355.4881	0.000562
356.1321	0.001279
356.7763	0.000794
357.4206	0.002439
358.0650	0.000562
358.7095	0.002018
359.3541	0.000605
359.9989	0.000626
360.6438	-0.000808
361.2888	0.001490
361.9339	0.000162
362.5791	0.001870
363.2245	0.000035
363.8699	0.000584
364.5155	-0.000387
365.1612	0.000204
365.8071	-0.000007
366.4530	0.001659
367.0991	0.000984
367.7453	0.000710
368.3916	-0.000935
369.0380	0.002165
369.6845	0.001216
370.3312	0.000035
370.9780	-0.000302
371.6249	0.001765
372.2719	0.000731
372.9190	0.000077
373.5663	-0.000344
374.2136	-0.000724
374.8611	-0.000091
375.5087	0.000204
376.1564	0.000647
376.8043	0.000077
377.4522	-0.000724
378.1003	0.000984
378.7485	0.000499
379.3968	0.001047
380.0452	-0.000576
380.6938	0.001870
381.3424	-0.000134
381.9912	0.000710
382.6401	0.000098
383.2891	0.000035
383.9382	0.000330
384.5875	0.000204
385.2368	-0.000155
385.8863	0.001322
386.5359	0.001090
387.1856	0.002439
387.8355	0.002482
388.4854	0.002165
389.1355	0.002186
389.7856	0.003494
390.4359	0.001575
391.0863	0.002735
391.7369	0.003367
392.3875	0.005097
393.0383	0.006067
393.6891	0.007396
394.3401	0.007332
394.9912	0.007248
395.6425	0.008218
396.2938	0.009041
396.9453	0.007564
397.5968	0.009020
398.2485	0.010517
398.9003	0.012225
399.5522	0.013027
400.2043	0.012415
400.8564	0.014609
401.5087	0.013786
402.1610	0.015073
402.8135	0.015748
403.4661	0.016296
404.1189	0.016380
404.7717	0.015600
405.4246	0.019228
406.0777	0.019924
406.7309	0.018637
407.3842	0.017161
408.0376	0.018173
408.6911	0.018974
409.3448	0.019038
409.9985	0.020556
410.6524	0.019818
411.3064	0.019797
411.9605	0.019523
412.6147	0.020683
413.2690	0.021632
413.9234	0.022180
414.5780	0.022180
415.2326	0.022412
415.8874	0.020936
416.5423	0.022349
417.1973	0.020535
417.8524	0.021210
418.5077	0.022686
419.1630	0.022792
419.8185	0.022623
420.4741	0.025850
421.1298	0.025955
421.7856	0.026757
422.4415	0.027052
423.0975	0.026926
423.7536	0.026166
424.4099	0.024500
425.0663	0.026293
425.7228	0.025196
426.3793	0.022665
427.0361	0.024479
427.6929	0.023973
428.3498	0.026019
429.0068	0.024542
429.6640	0.028465
430.3213	0.027010
430.9787	0.027875
431.6362	0.024395
432.2938	0.024099
432.9515	0.023024
433.6093	0.027158
434.2673	0.026272
434.9253	0.025196
435.5835	0.025196
436.2418	0.024353
436.9001	0.026947
437.5586	0.022433
438.2173	0.023867
438.8760	0.023699
439.5348	0.023045
440.1938	0.023825
440.8528	0.023045
441.5120	0.027579
442.1713	0.024774
442.8307	0.026630
443.4902	0.026187
444.1498	0.024732
444.8095	0.027706
445.4694	0.024374
446.1293	0.024015
446.7894	0.023825
447.4496	0.024753
448.1098	0.021400
448.7702	0.021822
449.4307	0.023277
450.0914	0.021463
450.7521	0.020851
451.4129	0.020366
452.0739	0.019565
452.7349	0.021041
453.3961	0.017013
454.0574	0.018953
454.7188	0.016275
455.3803	0.018004
456.0419	0.019607
456.7036	0.016127
457.3654	0.016950
458.0274	0.019164
458.6894	0.017203
459.3516	0.016106
460.0138	0.017393
460.6762	0.016275
461.3387	0.014356
462.0013	0.014503
462.6640	0.013512
463.3268	0.012078
463.9897	0.014081
464.6528	0.015431
465.3159	0.013322
465.9792	0.014292
466.6425	0.013470
467.3060	0.012732
467.9696	0.011867
468.6333	0.010201
469.2970	0.009294
469.9610	0.008830
470.6250	0.008345
471.2891	0.008092
471.9533	0.007607
472.6177	0.007881
473.2821	0.009125
473.9467	0.007670
474.6113	0.008092
475.2761	0.008239
475.9410	0.006552
476.6060	0.008492
477.2711	0.005350
477.9363	0.007037
478.6016	0.005561
479.2670	0.006826
479.9325	0.006805
480.5982	0.006341
481.2639	0.005940
481.9298	0.006826
482.5957	0.005392
483.2618	0.007396
483.9280	0.005666
484.5943	0.005730
485.2606	0.005034
485.9271	0.019143
486.5937	0.010749
487.2605	0.008935
487.9273	0.004823
488.5942	0.006383
489.2612	0.003621
489.9284	0.003895
490.5956	0.003452
491.2630	0.005540
491.9304	0.001975
492.5980	0.003599
493.2657	0.002355
493.9334	0.004527
494.6013	0.004338
495.2693	0.003958
495.9374	0.004190
496.6056	0.003157
497.2739	0.003874
497.9423	0.003621
498.6109	0.002229
499.2795	0.002482
499.9482	0.002482
500.6171	0.002861
501.2860	0.002461
501.9551	0.002756
502.6242	0.001912
503.2935	0.004253
503.9628	0.003304
504.6323	0.002608
505.3019	0.002608
505.9716	0.003093
506.6414	0.001427
507.3113	0.003768
507.9813	0.000773
508.6514	0.002693
509.3216	0.001237
509.9919	0.003051
510.6623	0.001638
511.3329	0.001912
512.0035	0.002608
512.6742	0.003325
513.3451	0.002165
514.0160	0.003367
514.6871	0.002250
515.3582	0.003642
516.0295	0.002397
516.7008	0.002840
517.3723	0.002102
518.0439	0.002671
518.7155	0.003051
519.3873	0.002608
520.0592	0.002735
520.7312	0.003874
521.4033	0.002903
522.0755	0.002018
522.7478	0.002756
523.4202	0.002714
524.0927	0.002988
524.7653	0.003831
525.4380	0.004317
526.1108	0.003114
526.7837	0.004106
527.4568	0.004907
528.1299	0.004759
528.8031	0.003705
529.4765	0.005645
530.1499	0.004127
530.8234	0.005455
531.4971	0.004422
532.1708	0.006784
532.8447	0.005624
533.5186	0.005582
534.1927	0.006278
534.8668	0.007712
535.5411	0.007100
536.2155	0.007670
536.8899	0.005856
537.5645	0.007290
538.2392	0.008640
538.9139	0.009526
539.5888	0.008303
540.2638	0.008914
540.9389	0.008640
541.6140	0.009716
542.2893	0.011171
542.9647	0.011382
543.6402	0.012162
544.3158	0.012732
544.9915	0.013090
545.6673	0.013533
546.3432	0.011635
547.0192	0.013132
547.6953	0.015790
548.3715	0.019924
549.0478	0.015368
549.7242	0.016950
550.4007	0.015537
551.0773	0.016148
551.7540	0.016865
552.4308	0.019080
553.1077	0.019375
553.7847	0.020746
554.4618	0.019312
555.1390	0.020577
555.8163	0.020514
556.4937	0.021822
557.1712	0.021505
557.8488	0.023678
558.5266	0.022518
559.2044	0.020957
559.8823	0.023762
560.5603	0.027854
561.2384	0.030110
561.9166	0.028149
562.5949	0.027959
563.2733	0.029752
563.9519	0.030427
564.6305	0.034012
565.3092	0.033885
565.9880	0.034033
566.6669	0.034286
567.3459	0.041541
568.0250	0.046898
568.7043	0.050863
569.3836	0.066091
570.0630	0.085726
570.7425	0.087582
571.4221	0.106331
572.1018	0.115506
572.7816	0.099582
573.4615	0.114768
574.1415	0.133032
574.8216	0.146066
575.5018	0.145918
576.1821	0.132231
576.8626	0.150136
577.5431	0.162221
578.2237	0.201597
578.9044	0.168253
579.5851	0.166439
580.2660	0.175677
580.9470	0.169392
581.6281	0.268792
582.3093	0.259891
582.9906	0.203601
583.6720	0.159015
584.3535	0.157370
585.0351	0.185189
585.7167	0.192423
586.3985	0.167684
587.0804	0.178841
587.7624	0.185948
588.4445	0.165469
589.1266	0.148175
589.8089	0.134993
590.4913	0.122930
591.1737	0.107365
591.8563	0.110022
592.5389	0.128434
593.2217	0.165090
593.9046	0.161272
594.5875	0.141869
595.2705	0.165300
595.9537	0.141194
596.6369	0.116160
597.3203	0.122571
598.0037	0.115569
598.6872	0.129341
599.3709	0.150790
600.0546	0.149103
600.7384	0.149883
601.4223	0.151697
602.1064	0.137946
602.7905	0.137124
603.4747	0.158066
604.1590	0.141553
604.8434	0.127253
605.5279	0.135436
606.2125	0.140688
606.8972	0.127970
607.5819	0.131703
608.2668	0.122255
608.9518	0.117699
609.6369	0.106669
610.3220	0.126494
611.0073	0.115611
611.6927	0.115063
612.3781	0.106205
613.0637	0.104665
613.7493	0.103105
614.4351	0.106078
615.1209	0.103484
615.8068	0.108440
616.4929	0.093150
617.1790	0.088868
617.8652	0.091146
618.5515	0.085093
619.2379	0.073557
619.9244	0.075370
620.6110	0.078829
621.2977	0.062505
621.9845	0.067883
622.6714	0.067483
623.3584	0.073599
624.0454	0.071448
624.7326	0.077058
625.4199	0.065500
626.1072	0.064741
626.7947	0.056705
627.4822	0.057233
628.1698	0.054175
628.8576	0.047847
629.5454	0.054702
630.2333	0.047658
630.9213	0.046139
631.6094	0.041478
632.2976	0.042786
632.9859	0.037555
633.6743	0.037154
634.3628	0.034666
635.0514	0.033907
635.7400	0.034455
636.4288	0.037597
637.1177	0.036458
637.8066	0.033400
638.4957	0.036965
639.1848	0.034392
639.8740	0.031534
640.5633	0.030267
641.2528	0.029017
641.9423	0.026255
642.6319	0.025317
643.3216	0.024866
644.0113	0.023757
644.7012	0.022828
645.3912	0.022794
646.0812	0.021213
646.7714	0.019576
647.4616	0.022323
648.1520	0.022392
648.8424	0.027015
649.5329	0.028452
650.2236	0.024674
650.9143	0.022517
651.6051	0.024501
652.2960	0.027282
652.9870	0.024862
653.6780	0.026193
654.3692	0.028642
655.0605	0.049080
655.7518	0.800262
656.4433	1.006725
657.1348	0.716725
657.8264	0.435309
658.5181	0.325061
659.2099	0.235095
659.9018	0.058231
660.5938	0.020678
661.2859	0.019354
661.9781	0.018819
662.6704	0.019382
663.3627	0.016556
664.0552	0.018190
664.7477	0.017317
665.4403	0.021037
666.1330	0.019736
666.8259	0.015686
667.5188	0.016259
668.2117	0.017922
668.9048	0.016676
669.5980	0.016169
670.2913	0.017203
670.9846	0.016739
671.6781	0.022096
672.3716	0.028866
673.0652	0.028465
673.7589	0.025006
674.4527	0.024078
675.1466	0.022644
675.8406	0.022454
676.5347	0.020198
677.2288	0.018806
677.9231	0.024943
678.6174	0.026082
679.3119	0.024922
680.0064	0.029899
680.7010	0.027643
681.3957	0.031080
682.0905	0.028760
682.7854	0.024669
683.4803	0.025259
684.1754	0.026778
684.8705	0.032704
685.5658	0.035109
686.2611	0.036944
686.9565	0.035362
687.6520	0.036311
688.3476	0.033759
689.0433	0.030891
689.7390	0.029014
690.4349	0.028992
691.1308	0.031228
691.8269	0.032430
692.5230	0.029984
693.2192	0.033738
693.9155	0.032304
694.6119	0.025955
695.3083	0.029456
696.0049	0.023066
696.7016	0.029984
697.3983	0.033675
698.0951	0.032135
698.7920	0.031101
699.4890	0.029984
700.1861	0.025998
700.8833	0.026736
701.5806	0.023171
702.2779	0.023657
702.9753	0.025175
703.6729	0.023066
704.3705	0.023741
705.0682	0.020978
705.7660	0.018785
706.4638	0.025534
707.1618	0.031523
707.8599	0.030848
708.5580	0.031249
709.2562	0.027263
709.9545	0.028022
710.6529	0.029309
711.3514	0.027432
712.0500	0.024732
712.7486	0.023488
713.4474	0.025512
714.1462	0.029182
714.8451	0.030469
715.5441	0.028950
716.2432	0.025723
716.9424	0.023614
717.6416	0.022581
718.3410	0.025934
719.0404	0.022349
719.7399	0.024901
720.4395	0.024184
721.1392	0.023804
721.8390	0.025512
722.5388	0.020662
723.2388	0.023235
723.9388	0.023235
724.6389	0.023171
725.3391	0.027200
726.0394	0.027368
726.7398	0.026862
727.4403	0.024669
728.1408	0.030722
728.8414	0.027622
729.5421	0.028971
730.2429	0.029752
730.9438	0.035256
731.6448	0.035826
732.3458	0.032641
733.0470	0.036733
733.7482	0.035467
734.4495	0.044747
735.1509	0.040044
735.8524	0.038673
736.5539	0.041162
737.2556	0.041541
737.9573	0.037091
738.6591	0.032451
739.3610	0.039327
740.0630	0.037492
740.7651	0.033885
741.4672	0.027010
742.1695	0.026799
742.8718	0.026419
743.5742	0.026736
744.2767	0.024163
744.9792	0.024500
745.6819	0.023614
746.3846	0.025006
747.0874	0.024437
747.7903	0.026145
748.4933	0.021400
749.1964	0.026483
749.8995	0.029478
750.6028	0.032957
751.3061	0.032156
752.0095	0.033021
752.7130	0.031418
753.4166	0.031523
754.1202	0.033822
754.8239	0.035530
755.5278	0.035657
756.2317	0.036796
756.9356	0.041541
757.6397	0.048375
758.3438	0.045085
759.0481	0.046012
759.7524	0.050231
760.4568	0.050399
761.1613	0.051496
761.8658	0.043060
762.5705	0.040782
763.2752	0.040213
763.9800	0.041373
764.6849	0.050125
765.3898	0.047679
766.0949	0.040655
766.8000	0.033569
767.5052	0.031186
768.2105	0.034708
768.9159	0.040255
769.6214	0.037197
770.3269	0.037049
771.0325	0.038209
771.7382	0.037070
772.4440	0.036100
773.1499	0.032219
773.8558	0.030511
774.5618	0.026736
775.2679	0.025512
775.9741	0.020999
776.6804	0.020830
777.3868	0.020830
778.0932	0.019692
778.7997	0.023403
779.5063	0.024690
780.2130	0.022096
780.9197	0.025976
781.6265	0.029646
782.3335	0.028064
783.0405	0.027917
783.7475	0.028824
784.4547	0.025175
785.1619	0.023783
785.8692	0.022433
786.5766	0.022897
787.2841	0.023277
787.9917	0.025070
788.6993	0.025259
789.4070	0.024795
790.1148	0.020156
790.8227	0.019565
791.5306	0.020662
792.2387	0.019375
792.9468	0.017203
793.6550	0.019101
794.3632	0.024922
795.0716	0.026799
795.7800	0.025512
796.4885	0.020282
797.1971	0.018405
797.9058	0.018996
798.6145	0.018616
799.3233	0.019080
800.0322	0.018131
800.7412	0.017540
801.4503	0.015642
802.1594	0.013660
802.8686	0.013196
803.5779	0.014714
804.2873	0.014904
804.9968	0.015220
805.7063	0.015452
806.4159	0.019966
807.1256	0.019924
807.8354	0.018827
808.5452	0.017857
809.2551	0.018342
809.9651	0.014904
810.6752	0.014567
811.3853	0.013702
812.0956	0.014967
812.8059	0.012141
813.5163	0.013280
814.2267	0.016908
814.9373	0.014672
815.6479	0.013238
816.3586	0.011192
817.0694	0.011719
817.7802	0.012015
818.4912	0.010412
819.2022	0.010665
819.9133	0.009758
820.6244	0.013048
821.3357	0.012099
822.0470	0.011234
822.7584	0.010602
823.4698	0.008809
824.1814	0.007923
824.8930	0.008514
825.6047	0.011508
826.3165	0.009716
827.0283	0.012521
827.7402	0.012078
828.4522	0.011087
829.1643	0.011529
829.8765	0.008978
830.5887	0.008640
831.3010	0.008197
832.0134	0.006658
832.7259	0.006215
833.4384	0.008007
834.1510	0.009779
834.8637	0.009484
835.5765	0.008028
836.2893	0.008577
837.0022	0.005856
837.7152	0.005666
838.4283	0.006320
839.1414	0.006172
839.8546	0.006594
840.5679	0.005624
841.2813	0.006299
841.9947	0.005287
842.7082	0.004970
843.4218	0.005034
844.1355	0.004759
844.8492	0.003747
845.5631	0.004148
846.2770	0.004612
846.9909	0.003768
847.7050	0.004696
848.4191	0.004338
849.1333	0.004633
849.8475	0.005350
850.5619	0.005434
851.2763	0.004042
851.9908	0.003874
852.7053	0.007754
853.4200	0.010412
854.1347	0.011783
854.8495	0.012289
855.5643	0.010559
856.2792	0.010074
856.9942	0.011888
857.7093	0.007417
858.4245	0.006890
859.1397	0.005983
859.8550	0.007417
860.5704	0.007269
861.2858	0.005624
862.0013	0.004781
862.7169	0.005898
863.4326	0.006215
864.1483	0.006151
864.8642	0.004633
865.5800	0.004928
866.2960	0.003431
867.0120	0.005266
867.7281	0.003599
868.4443	0.004401
869.1606	0.006172
869.8769	0.004591
870.5933	0.003051
871.3097	0.006658
872.0263	0.002840
872.7429	0.004654
873.4596	0.004274
874.1763	0.004654
874.8932	0.004549
875.6101	0.005519
876.3270	0.003473
877.0441	0.004506
877.7612	0.003410
878.4784	0.005223
879.1957	0.007290
879.9130	0.005877
880.6304	0.006594
881.3479	0.007016
882.0654	0.006299
882.7831	0.005392
883.5007	0.006573
884.2185	0.005160
884.9363	0.005287
885.6542	0.005582
886.3722	0.006362
887.0903	0.004085
887.8084	0.005645
888.5266	0.005118
889.2448	0.004612
889.9632	0.003599
890.6816	0.004633
891.4001	0.002650
892.1186	0.004127
892.8372	0.003726
893.5559	0.003346
894.2747	0.004422
894.9935	0.004127
895.7124	0.004928
896.4314	0.004190
897.1504	0.005329
897.8695	0.005603
898.5887	0.004401
899.3079	0.002946
900.0272	0.003389
900.7466	0.003958
901.4661	0.002735
902.1856	0.004928
902.9052	0.004506
903.6249	0.003578
904.3446	0.003810
905.0644	0.003768
905.7843	0.003789
906.5043	0.003515
907.2243	0.002566
907.9444	0.003325
908.6645	0.003937
909.3847	0.004106
910.1050	0.003705
910.8254	0.003789
911.5458	0.000900
912.2663	0.003431
912.9869	0.001511
913.7075	0.003621
914.4283	0.002229
915.1490	0.003346
915.8699	0.004042
916.5908	0.002123
917.3118	0.003726
918.0328	0.004127
918.7539	0.003389
919.4751	0.003051
920.1964	0.002271
920.9177	0.003578
921.6391	0.002250
922.3606	0.002102
923.0821	0.003114
923.8037	0.001765
924.5254	0.002018
925.2471	0.002946
925.9689	0.001385
926.6908	0.002313
927.4127	0.003367
928.1347	0.002334
928.8568	0.001638
929.5789	0.001680
930.3011	0.002207
931.0234	0.003262
931.7457	0.001743
932.4681	0.001469
933.1906	0.002735
933.9131	0.002777
934.6358	0.002587
935.3584	0.001786
936.0812	-0.000302
936.8040	0.001132
937.5269	0.001153
938.2498	0.002207
938.9728	0.000731
939.6959	0.001975
940.4190	0.001343
941.1422	0.002102
941.8655	-0.000218
942.5889	0.000647
943.3123	0.000562
944.0357	0.001849
944.7593	0.001216
945.4829	0.000478
946.2066	0.001701
946.9303	0.000710
947.6541	0.000752
948.3780	-0.000598
949.1019	0.001722
949.8259	-0.000049
950.5500	0.001617
951.2741	0.001301
951.9983	0.001638
952.7226	0.001765
953.4469	0.001322
954.1713	0.002207
954.8958	0.000267
955.6203	0.001111
956.3449	0.001047
957.0696	0.000858
957.7943	0.000309
958.5191	0.001279
959.2439	0.000794
959.9688	0.001174
960.6938	0.002439
961.4189	-0.000028
962.1440	0.001997
962.8692	-0.000134
963.5944	0.000626
964.3197	0.000415
965.0451	0.000626
965.7705	0.000330
966.4960	0.002482
967.2216	0.000352
967.9472	0.002925
968.6729	0.000921
969.3987	0.001807
970.1245	-0.000344
970.8504	0.001469
971.5763	-0.000682
972.3023	0.000014
973.0284	0.001680
973.7545	0.000773
974.4807	0.000120
975.2070	0.000267
975.9333	0.000246
976.6597	0.001237
977.3862	-0.000176
978.1127	0.000984
978.8393	0.000288
979.5659	0.001659
980.2926	0.001511
981.0194	0.000162
981.7462	0.000710
982.4731	-0.000112
983.2001	-0.000112
983.9271	0.000330
984.6542	0.000647
985.3814	0.001026
986.1086	0.001026
986.8358	0.000879
987.5632	0.001554
988.2906	0.002186
989.0180	0.000162
989.7456	-0.000281
990.4732	0.000056
991.2008	0.001047
991.9285	-0.000134
992.6563	0.001005
993.3841	0.000647
994.1120	0.000014
994.8400	0.000014
995.5680	0.000816
996.2961	0.001026
997.0242	0.000457
997.7524	-0.000007
998.4807	0.001132
999.2090	-0.000134
999.9374	-0.001294
1000.67	0.001132
1001.39	0.001005
1002.12	0.000879
1002.85	-0.001019
1003.58	0.002798
1004.31	-0.001673
1005.04	0.000879
1005.77	0.000541
1006.5	-0.000239
1007.22	0.000794
1007.95	0.001765
1008.68	0.000541
1009.41	0.001322
1010.14	0.000710
1010.87	0.002714
1011.6	-0.000366
1012.33	0.000077
1013.06	0.000330
1013.79	0.000668
1014.52	-0.000492
1015.25	0.001575
1015.98	0.000816
1016.71	0.000647
1017.44	-0.001884
1018.17	0.000014
1018.9	-0.000239
1019.63	-0.000408
1020.36	-0.001062
1021.09	0.000035
1021.82	-0.000302
1022.55	0.000457
1023.03	-0.000956