File: Auto_Polymerization/Spectra/pure_compounds_spectra_test/DMSO+Anisole_spectrum_2025-06-19_14-50-15.txt
# Wavelength (nm)	Intensity (a.u.)
197.7802	0.000021
198.3922	-0.000084
199.0044	0.002278
199.6168	0.000844
200.2292	0.000422
200.8418	0.000654
201.4546	0.000084
202.0674	0.000654
202.6805	0.001287
203.2936	-0.000759
203.9069	0.001856
204.5203	0.000591
205.1338	0.000738
205.7475	0.000316
206.3614	0.001245
206.9753	0.000063
207.5894	0.001055
208.2036	0.001434
208.8180	0.001202
209.4325	0.001814
210.0471	0.000338
210.6618	-0.000780
211.2767	0.000949
211.8918	0.001498
212.5069	0.000928
213.1222	-0.000570
213.7376	0.001287
214.3532	0.000738
214.9689	0.001160
215.5847	0.000485
216.2007	0.002679
216.8168	0.000823
217.4330	0.001751
218.0494	0.000865
218.6659	0.000738
219.2825	0.000654
219.8992	0.000696
220.5161	0.001139
221.1332	0.000591
221.7503	0.001013
222.3676	0.001245
222.9850	0.000105
223.6026	0.001055
224.2203	-0.000359
224.8381	0.000338
225.4561	0.000042
226.0742	-0.000042
226.6924	-0.000928
227.3107	0.000401
227.9292	0.001266
228.5478	0.000759
229.1666	0.000802
229.7855	0.000127
230.4045	0.001371
231.0236	0.001160
231.6429	-0.000021
232.2623	0.000105
232.8818	0.001835
233.5015	0.000970
234.1213	0.000148
234.7413	0.001540
235.3613	0.002679
235.9815	-0.000232
236.6018	-0.000063
237.2223	0.000633
237.8429	0.000675
238.4636	-0.000295
239.0845	0.000780
239.7055	0.001793
240.3266	0.000063
240.9478	0.002004
241.5692	0.000464
242.1907	0.002236
242.8124	0.001118
243.4341	0.001181
244.0560	0.001181
244.6781	0.000422
245.3002	0.000907
245.9225	0.001034
246.5449	0.001709
247.1675	0.002468
247.7902	0.000042
248.4130	0.002257
249.0359	0.001287
249.6590	0.001519
250.2822	0.000169
250.9056	0.001097
251.5290	-0.000380
252.1526	0.001751
252.7763	-0.000338
253.4002	0.001055
254.0242	0.001055
254.6483	0.000548
255.2725	0.000591
255.8969	0.001540
256.5214	-0.000548
257.1460	0.001055
257.7708	0.000316
258.3957	0.001371
259.0207	0.000359
259.6459	0.000844
260.2711	0.000654
260.8965	0.002236
261.5221	0.000485
262.1477	0.002194
262.7735	0.000591
263.3995	0.002152
264.0255	-0.000443
264.6517	0.001223
265.2780	-0.000570
265.9044	-0.000169
266.5310	0.000232
267.1577	0.001118
267.7845	-0.000211
268.4114	0.002025
269.0385	0.001139
269.6657	0.001983
270.2931	0.000380
270.9205	0.001751
271.5481	-0.000654
272.1758	0.001076
272.8037	0.000886
273.4316	0.000148
274.0597	0.001645
274.6880	0.002130
275.3163	-0.000823
275.9448	0.000802
276.5734	0.001329
277.2022	0.000359
277.8310	0.002447
278.4600	0.001561
279.0891	0.000907
279.7184	0.000970
280.3477	0.001034
280.9772	0.001941
281.6069	0.001666
282.2366	0.001076
282.8665	0.002130
283.4965	0.002194
284.1266	0.001097
284.7569	0.000970
285.3873	0.001076
286.0178	0.000717
286.6484	0.000928
287.2792	0.000928
287.9101	-0.000021
288.5411	-0.000148
289.1723	0.000021
289.8035	0.001561
290.4349	-0.000380
291.0665	0.000802
291.6981	0.000401
292.3299	0.000527
292.9618	-0.000105
293.5938	0.001034
294.2260	-0.001181
294.8582	0.001455
295.4906	0.000591
296.1232	0.000148
296.7558	0.000738
297.3886	0.000928
298.0215	0.001835
298.6545	0.001181
299.2877	0.001835
299.9210	0.000991
300.5544	0.000654
301.1879	0.000886
301.8215	0.002130
302.4553	0.002341
303.0892	0.001202
303.7233	0.002025
304.3574	0.000148
304.9917	-0.000359
305.6261	0.000127
306.2606	0.001034
306.8953	0.001202
307.5301	0.001287
308.1650	0.001202
308.8000	0.001793
309.4351	0.000232
310.0704	0.001772
310.7058	0.001308
311.3413	0.001730
311.9770	0.000570
312.6127	0.001034
313.2486	0.001920
313.8846	0.002278
314.5208	0.000949
315.1570	0.002489
315.7934	0.001877
316.4299	0.002236
317.0666	0.002869
317.7033	0.001688
318.3402	0.001709
318.9772	0.002679
319.6143	0.003080
320.2516	0.001941
320.8890	0.002067
321.5265	0.002341
322.1641	0.002088
322.8018	0.002363
323.4397	0.002510
324.0777	0.003059
324.7158	0.002784
325.3540	0.002953
325.9924	0.004430
326.6308	0.002025
327.2694	0.003143
327.9082	0.003354
328.5470	0.002911
329.1860	0.002721
329.8251	0.001877
330.4643	0.003502
331.1036	0.003818
331.7431	0.004493
332.3826	0.003902
333.0223	0.004852
333.6622	0.003059
334.3021	0.003438
334.9422	0.005463
335.5823	0.004472
336.2227	0.005316
336.8631	0.005632
337.5036	0.004957
338.1443	0.004831
338.7851	0.003375
339.4260	0.007088
340.0670	0.004809
340.7082	0.006581
341.3495	0.004957
341.9909	0.006202
342.6324	0.006159
343.2740	0.007066
343.9158	0.005569
344.5577	0.007720
345.1997	0.005759
345.8418	0.007678
346.4840	0.007066
347.1264	0.006877
347.7689	0.005548
348.4115	0.007594
349.0542	0.006898
349.6971	0.008522
350.3400	0.007699
350.9831	0.009345
351.6263	0.007826
352.2696	0.008121
352.9131	0.008649
353.5566	0.009556
354.2003	0.008733
354.8441	0.009682
355.4881	0.009471
356.1321	0.009598
356.7763	0.010927
357.4206	0.009239
358.0650	0.009682
358.7095	0.009766
359.3541	0.010568
359.9989	0.011264
360.6438	0.011201
361.2888	0.011201
361.9339	0.010209
362.5791	0.009999
363.2245	0.010652
363.8699	0.011074
364.5155	0.009577
365.1612	0.011770
365.8071	0.010610
366.4530	0.011792
367.0991	0.010695
367.7453	0.012319
368.3916	0.012614
369.0380	0.011897
369.6845	0.013057
370.3312	0.012340
370.9780	0.011876
371.6249	0.012066
372.2719	0.013437
372.9190	0.014492
373.5663	0.013922
374.2136	0.014956
374.8611	0.016580
375.5087	0.017086
376.1564	0.016200
376.8043	0.016601
377.4522	0.017592
378.1003	0.018120
378.7485	0.019238
379.3968	0.019491
380.0452	0.019660
380.6938	0.019385
381.3424	0.017761
381.9912	0.019660
382.6401	0.022613
383.2891	0.019913
383.9382	0.020651
384.5875	0.021959
385.2368	0.022170
385.8863	0.023119
386.5359	0.023562
387.1856	0.023330
387.8355	0.024110
388.4854	0.025102
389.1355	0.024300
389.7856	0.023456
390.4359	0.024828
391.0863	0.026515
391.7369	0.024701
392.3875	0.029574
393.0383	0.031493
393.6891	0.027148
394.3401	0.028814
394.9912	0.029637
395.6425	0.029110
396.2938	0.030544
396.9453	0.031324
397.5968	0.031999
398.2485	0.034615
398.9003	0.034235
399.5522	0.034235
400.2043	0.030776
400.8564	0.033033
401.5087	0.032696
402.1610	0.036282
402.8135	0.032189
403.4661	0.033371
404.1189	0.034341
404.7717	0.032801
405.4246	0.035944
406.0777	0.033708
406.7309	0.033328
407.3842	0.031409
408.0376	0.030185
408.6911	0.033877
409.3448	0.033539
409.9985	0.034025
410.6524	0.032590
411.3064	0.033856
411.9605	0.034657
412.6147	0.035164
413.2690	0.034130
413.9234	0.036471
414.5780	0.035881
415.2326	0.033940
415.8874	0.033265
416.5423	0.035459
417.1973	0.034278
417.8524	0.035501
418.5077	0.034510
419.1630	0.038075
419.8185	0.036788
420.4741	0.037041
421.1298	0.038750
421.7856	0.044297
422.4415	0.040458
423.0975	0.041218
423.7536	0.044804
424.4099	0.040627
425.0663	0.040732
425.7228	0.037062
426.3793	0.034889
427.0361	0.038939
427.6929	0.039889
428.3498	0.039699
429.0068	0.038496
429.6640	0.043221
430.3213	0.043833
430.9787	0.044129
431.6362	0.040142
432.2938	0.036598
432.9515	0.039045
433.6093	0.043264
434.2673	0.045162
434.9253	0.041196
435.5835	0.041724
436.2418	0.042188
436.9001	0.041344
437.5586	0.042947
438.2173	0.040268
438.8760	0.043770
439.5348	0.042800
440.1938	0.043791
440.8528	0.043496
441.5120	0.052102
442.1713	0.051132
442.8307	0.051680
443.4902	0.049845
444.1498	0.053157
444.8095	0.050752
445.4694	0.049697
446.1293	0.051701
446.7894	0.049782
447.4496	0.051933
448.1098	0.048959
448.7702	0.048917
449.4307	0.052144
450.0914	0.048811
450.7521	0.046470
451.4129	0.044698
452.0739	0.047482
452.7349	0.049529
453.3961	0.046723
454.0574	0.045500
454.7188	0.041513
455.3803	0.047377
456.0419	0.048031
456.7036	0.044382
457.3654	0.047757
458.0274	0.048305
458.6894	0.049233
459.3516	0.049950
460.0138	0.049761
460.6762	0.046364
461.3387	0.048980
462.0013	0.044192
462.6640	0.045584
463.3268	0.047482
463.9897	0.048495
464.6528	0.053304
465.3159	0.054886
465.9792	0.057903
466.6425	0.049972
467.3060	0.043538
467.9696	0.046997
468.6333	0.044993
469.2970	0.044867
469.9610	0.041175
470.6250	0.037547
471.2891	0.038539
471.9533	0.041323
472.6177	0.041386
473.2821	0.045183
473.9467	0.045647
474.6113	0.043411
475.2761	0.045753
475.9410	0.045921
476.6060	0.045078
477.2711	0.043749
477.9363	0.048832
478.6016	0.047968
479.2670	0.046238
479.9325	0.045753
480.5982	0.050942
481.2639	0.049043
481.9298	0.054401
482.5957	0.050963
483.2618	0.050035
483.9280	0.051617
484.5943	0.057207
485.2606	0.056637
485.9271	0.179847
486.5937	0.126753
487.2605	0.097116
487.9273	0.059253
488.5942	0.049128
489.2612	0.052271
489.9284	0.051954
490.5956	0.049592
491.2630	0.052482
491.9304	0.049149
492.5980	0.051870
493.2657	0.048432
493.9334	0.052186
494.6013	0.051068
495.2693	0.047588
495.9374	0.049571
496.6056	0.057502
497.2739	0.048411
497.9423	0.047229
498.6109	0.049571
499.2795	0.052397
499.9482	0.052461
500.6171	0.050182
501.2860	0.052629
501.9551	0.051765
502.6242	0.053726
503.2935	0.051870
503.9628	0.053747
504.6323	0.049571
505.3019	0.050035
505.9716	0.050541
506.6414	0.051343
507.3113	0.046913
507.9813	0.047419
508.6514	0.047799
509.3216	0.046069
509.9919	0.046491
510.6623	0.047061
511.3329	0.048664
512.0035	0.044171
512.6742	0.043664
513.3451	0.044614
514.0160	0.044107
514.6871	0.041218
515.3582	0.040374
516.0295	0.042968
516.7008	0.043116
517.3723	0.040311
518.0439	0.038159
518.7155	0.038201
519.3873	0.039235
520.0592	0.039509
520.7312	0.036493
521.4033	0.037231
522.0755	0.036830
522.7478	0.035944
523.4202	0.037442
524.0927	0.036408
524.7653	0.035269
525.4380	0.035396
526.1108	0.038560
526.7837	0.037800
527.4568	0.037189
528.1299	0.037083
528.8031	0.039952
529.4765	0.038897
530.1499	0.037210
530.8234	0.036809
531.4971	0.037273
532.1708	0.037779
532.8447	0.037610
533.5186	0.042125
534.1927	0.043517
534.8668	0.045795
535.5411	0.043179
536.2155	0.042652
536.8899	0.040078
537.5645	0.041070
538.2392	0.043116
538.9139	0.042399
539.5888	0.044782
540.2638	0.043622
540.9389	0.044930
541.6140	0.044023
542.2893	0.046596
542.9647	0.045795
543.6402	0.046934
544.3158	0.049381
544.9915	0.049761
545.6673	0.047082
546.3432	0.045774
547.0192	0.044086
547.6953	0.048854
548.3715	0.053515
549.0478	0.051258
549.7242	0.048179
550.4007	0.045268
551.0773	0.042694
551.7540	0.044487
552.4308	0.051132
553.1077	0.050773
553.7847	0.051680
554.4618	0.049149
555.1390	0.045900
555.8163	0.051807
556.4937	0.051427
557.1712	0.050225
557.8488	0.050119
558.5266	0.047377
559.2044	0.046280
559.8823	0.047440
560.5603	0.055097
561.2384	0.056722
561.9166	0.054675
562.5949	0.054275
563.2733	0.055983
563.9519	0.056785
564.6305	0.060118
565.3092	0.061932
565.9880	0.059801
566.6669	0.062607
567.3459	0.071403
568.0250	0.078132
568.7043	0.088721
569.3836	0.106799
570.0630	0.137005
570.7425	0.138524
571.4221	0.163689
572.1018	0.179003
572.7816	0.153501
573.4615	0.174447
574.1415	0.198367
574.8216	0.210918
575.5018	0.216846
576.1821	0.192250
576.8626	0.213513
577.5431	0.230219
578.2237	0.284030
578.9044	0.234143
579.5851	0.235134
580.2660	0.238678
580.9470	0.232118
581.6281	0.362457
582.3093	0.339444
582.9906	0.265277
583.6720	0.216825
584.3535	0.216086
585.0351	0.245259
585.7167	0.259118
586.3985	0.219293
587.0804	0.230472
587.7624	0.243171
588.4445	0.214441
589.1266	0.184720
589.8089	0.173392
590.4913	0.159027
591.1737	0.138039
591.8563	0.138250
592.5389	0.161664
593.2217	0.209463
593.9046	0.200582
594.5875	0.172949
595.2705	0.204358
595.9537	0.179509
596.6369	0.147953
597.3203	0.153036
598.0037	0.147679
598.6872	0.157340
599.3709	0.185120
600.0546	0.188474
600.7384	0.181724
601.4223	0.185542
602.1064	0.168393
602.7905	0.171156
603.4747	0.188580
604.1590	0.173645
604.8434	0.157382
605.5279	0.164933
606.2125	0.174320
606.8972	0.158268
607.5819	0.158015
608.2668	0.147299
608.9518	0.143270
609.6369	0.129960
610.3220	0.148965
611.0073	0.138313
611.6927	0.140359
612.3781	0.127935
613.0637	0.129158
613.7493	0.123737
614.4351	0.126205
615.1209	0.127766
615.8068	0.128314
616.4929	0.113042
617.1790	0.110912
617.8652	0.111228
618.5515	0.099141
619.2379	0.087350
619.9244	0.089797
620.6110	0.091653
621.2977	0.074989
621.9845	0.079798
622.6714	0.080748
623.3584	0.091231
624.0454	0.086612
624.7326	0.089628
625.4199	0.080115
626.1072	0.074905
626.7947	0.068492
627.4822	0.072141
628.1698	0.062480
628.8576	0.056827
629.5454	0.062143
630.2333	0.056743
630.9213	0.054043
631.6094	0.053283
632.2976	0.050710
632.9859	0.043686
633.6743	0.042821
634.3628	0.042673
635.0514	0.042483
635.7400	0.039614
636.4288	0.044150
637.1177	0.041534
637.8066	0.039171
638.4957	0.043285
639.1848	0.042673
639.8740	0.037881
640.5633	0.036509
641.2528	0.034776
641.9423	0.032350
642.6319	0.030444
643.3216	0.028567
644.0113	0.030118
644.7012	0.026943
645.3912	0.027012
646.0812	0.025545
646.7714	0.023139
647.4616	0.025750
648.1520	0.028525
648.8424	0.033517
649.5329	0.032591
650.2236	0.030824
650.9143	0.029216
651.6051	0.030248
652.2960	0.031962
652.9870	0.030814
653.6780	0.032161
654.3692	0.032166
655.0605	0.059733
655.7518	0.941796
656.4433	1.000000
657.1348	0.824549
657.8264	0.505143
658.5181	0.384233
659.2099	0.301383
659.9018	0.080185
660.5938	0.028357
661.2859	0.022895
661.9781	0.021622
662.6704	0.021387
663.3627	0.021076
664.0552	0.022386
664.7477	0.023221
665.4403	0.024549
666.1330	0.023922
666.8259	0.021986
667.5188	0.022275
668.2117	0.019522
668.9048	0.021832
669.5980	0.020630
670.2913	0.021896
670.9846	0.020820
671.6781	0.028540
672.3716	0.035269
673.0652	0.033877
673.7589	0.029848
674.4527	0.026810
675.1466	0.026536
675.8406	0.024617
676.5347	0.025165
677.2288	0.022085
677.9231	0.028203
678.6174	0.029321
679.3119	0.031282
680.0064	0.033877
680.7010	0.032105
681.3957	0.035522
682.0905	0.032970
682.7854	0.030080
683.4803	0.031725
684.1754	0.032358
684.8705	0.038222
685.5658	0.043791
686.2611	0.042926
686.9565	0.045605
687.6520	0.043369
688.3476	0.038623
689.0433	0.035522
689.7390	0.033160
690.4349	0.032358
691.1308	0.034805
691.8269	0.035670
692.5230	0.036260
693.2192	0.037674
693.9155	0.037442
694.6119	0.031409
695.3083	0.035164
696.0049	0.028835
696.7016	0.036788
697.3983	0.037927
698.0951	0.040458
698.7920	0.034910
699.4890	0.033033
700.1861	0.032527
700.8833	0.031071
701.5806	0.028519
702.2779	0.029764
702.9753	0.030987
703.6729	0.027886
704.3705	0.027549
705.0682	0.023667
705.7660	0.025777
706.4638	0.030628
707.1618	0.035396
707.8599	0.036429
708.5580	0.035944
709.2562	0.031282
709.9545	0.035564
710.6529	0.033771
711.3514	0.031219
712.0500	0.028540
712.7486	0.029004
713.4474	0.031050
714.1462	0.034953
714.8451	0.033645
715.5441	0.033792
716.2432	0.030987
716.9424	0.028055
717.6416	0.026979
718.3410	0.029278
719.0404	0.029468
719.7399	0.029342
720.4395	0.028477
721.1392	0.032126
721.8390	0.027696
722.5388	0.028624
723.2388	0.027042
723.9388	0.027338
724.6389	0.026726
725.3391	0.030671
726.0394	0.031852
726.7398	0.031978
727.4403	0.031198
728.1408	0.033413
728.8414	0.031831
729.5421	0.034805
730.2429	0.035796
730.9438	0.040543
731.6448	0.042251
732.3458	0.040838
733.0470	0.041260
733.7482	0.044740
734.4495	0.050668
735.1509	0.047757
735.8524	0.045099
736.5539	0.046829
737.2556	0.047989
737.9573	0.043580
738.6591	0.039235
739.3610	0.044129
740.0630	0.040627
740.7651	0.038792
741.4672	0.034826
742.1695	0.033687
742.8718	0.034868
743.5742	0.031029
744.2767	0.028983
744.9792	0.028667
745.6819	0.029510
746.3846	0.028139
747.0874	0.029679
747.7903	0.029890
748.4933	0.026958
749.1964	0.030734
749.8995	0.036450
750.6028	0.040015
751.3061	0.035670
752.0095	0.039045
752.7130	0.037231
753.4166	0.036218
754.1202	0.041661
754.8239	0.039762
755.5278	0.040036
756.2317	0.044086
756.9356	0.047820
757.6397	0.058873
758.3438	0.054718
759.0481	0.053072
759.7524	0.059021
760.4568	0.062206
761.1613	0.057354
761.8658	0.051364
762.5705	0.046744
763.2752	0.047145
763.9800	0.047672
764.6849	0.056258
765.3898	0.056236
766.0949	0.048284
766.8000	0.042293
767.5052	0.038075
768.2105	0.039277
768.9159	0.046554
769.6214	0.045626
770.3269	0.044339
771.0325	0.044825
771.7382	0.043770
772.4440	0.040332
773.1499	0.037927
773.8558	0.038876
774.5618	0.032316
775.2679	0.028392
775.9741	0.027232
776.6804	0.025503
777.3868	0.023752
778.0932	0.025692
778.7997	0.027338
779.5063	0.029152
780.2130	0.025608
780.9197	0.030080
781.6265	0.034067
782.3335	0.035923
783.0405	0.032949
783.7475	0.034404
784.4547	0.031219
785.1619	0.028118
785.8692	0.027317
786.5766	0.027127
787.2841	0.027485
787.9917	0.029742
788.6993	0.031683
789.4070	0.027296
790.1148	0.024342
790.8227	0.025608
791.5306	0.023288
792.2387	0.022043
792.9468	0.021874
793.6550	0.022613
794.3632	0.030312
795.0716	0.031789
795.7800	0.030017
796.4885	0.023267
797.1971	0.022697
797.9058	0.023246
798.6145	0.023604
799.3233	0.022128
800.0322	0.020461
800.7412	0.018753
801.4503	0.016938
802.1594	0.017951
802.8686	0.017993
803.5779	0.017107
804.2873	0.017677
804.9968	0.015441
805.7063	0.017656
806.4159	0.022908
807.1256	0.021706
807.8354	0.023435
808.5452	0.021832
809.2551	0.022528
809.9651	0.020377
810.6752	0.019153
811.3853	0.018373
812.0956	0.018077
812.8059	0.015441
813.5163	0.016285
814.2267	0.020187
814.9373	0.016812
815.6479	0.014808
816.3586	0.012909
817.0694	0.015504
817.7802	0.014935
818.4912	0.015061
819.2022	0.013247
819.9133	0.012445
820.6244	0.015504
821.3357	0.015525
822.0470	0.012361
822.7584	0.012129
823.4698	0.011918
824.1814	0.011475
824.8930	0.013078
825.6047	0.013732
826.3165	0.012888
827.0283	0.013690
827.7402	0.012382
828.4522	0.011834
829.1643	0.013205
829.8765	0.009999
830.5887	0.010294
831.3010	0.009893
832.0134	0.007256
832.7259	0.009345
833.4384	0.009619
834.1510	0.009640
834.8637	0.010420
835.5765	0.010378
836.2893	0.009745
837.0022	0.009049
837.7152	0.006117
838.4283	0.006856
839.1414	0.006877
839.8546	0.007910
840.5679	0.007741
841.2813	0.007784
841.9947	0.006455
842.7082	0.005463
843.4218	0.003945
844.1355	0.005759
844.8492	0.007214
845.5631	0.006370
846.2770	0.005653
846.9909	0.004071
847.7050	0.005822
848.4191	0.004514
849.1333	0.004535
849.8475	0.006012
850.5619	0.004767
851.2763	0.005105
851.9908	0.005084
852.7053	0.008564
853.4200	0.013563
854.1347	0.014681
854.8495	0.012551
855.5643	0.013627
856.2792	0.011475
856.9942	0.011053
857.7093	0.010821
858.4245	0.011180
859.1397	0.009155
859.8550	0.008627
860.5704	0.007720
861.2858	0.007910
862.0013	0.006834
862.7169	0.007404
863.4326	0.007109
864.1483	0.005759
864.8642	0.006223
865.5800	0.007256
866.2960	0.004430
867.0120	0.005843
867.7281	0.005231
868.4443	0.006560
869.1606	0.005210
869.8769	0.004198
870.5933	0.006539
871.3097	0.006898
872.0263	0.004240
872.7429	0.005210
873.4596	0.004767
874.1763	0.004219
874.8932	0.004620
875.6101	0.007615
876.3270	0.006391
877.0441	0.004366
877.7612	0.007045
878.4784	0.006729
879.1957	0.007868
879.9130	0.006898
880.6304	0.007868
881.3479	0.007425
882.0654	0.006877
882.7831	0.007868
883.5007	0.005801
884.2185	0.004388
884.9363	0.005991
885.6542	0.006982
886.3722	0.006813
887.0903	0.005780
887.8084	0.005716
888.5266	0.005273
889.2448	0.006940
889.9632	0.005147
890.6816	0.005358
891.4001	0.007003
892.1186	0.007488
892.8372	0.005421
893.5559	0.006033
894.2747	0.004219
894.9935	0.003860
895.7124	0.004894
896.4314	0.006370
897.1504	0.006497
897.8695	0.004767
898.5887	0.004514
899.3079	0.004134
900.0272	0.003881
900.7466	0.003860
901.4661	0.003691
902.1856	0.004641
902.9052	0.004430
903.6249	0.004092
904.3446	0.003797
905.0644	0.005105
905.7843	0.005084
906.5043	0.005759
907.2243	0.003565
907.9444	0.004430
908.6645	0.004008
909.3847	0.005738
910.1050	0.003227
910.8254	0.004978
911.5458	0.003544
912.2663	0.005379
912.9869	0.003185
913.7075	0.003059
914.4283	0.003544
915.1490	0.004303
915.8699	0.004134
916.5908	0.005400
917.3118	0.004915
918.0328	0.005084
918.7539	0.004134
919.4751	0.005020
920.1964	0.003691
920.9177	0.002109
921.6391	0.003164
922.3606	0.002974
923.0821	0.003544
923.8037	0.003923
924.5254	0.003059
925.2471	0.002320
925.9689	0.003270
926.6908	0.002932
927.4127	0.002341
928.1347	0.002341
928.8568	0.002552
929.5789	0.003016
930.3011	0.000844
931.0234	0.002658
931.7457	0.003396
932.4681	0.003312
933.1906	0.002067
933.9131	0.003945
934.6358	0.002088
935.3584	0.001582
936.0812	0.003185
936.8040	0.003101
937.5269	0.002278
938.2498	0.000316
938.9728	0.002531
939.6959	0.000359
940.4190	0.001666
941.1422	0.002004
941.8655	0.001076
942.5889	0.001055
943.3123	0.001962
944.0357	0.001666
944.7593	0.001392
945.4829	0.001519
946.2066	0.001709
946.9303	-0.001350
947.6541	0.002595
948.3780	0.001561
949.1019	0.002067
949.8259	0.001245
950.5500	0.001730
951.2741	0.001751
951.9983	0.000105
952.7226	0.001941
953.4469	0.002363
954.1713	0.001582
954.8958	0.002784
955.6203	0.002236
956.3449	0.002363
957.0696	0.001814
957.7943	0.001245
958.5191	0.001603
959.2439	0.001181
959.9688	0.001287
960.6938	0.001434
961.4189	0.001223
962.1440	0.001392
962.8692	0.000232
963.5944	0.001118
964.3197	0.001645
965.0451	0.000042
965.7705	0.001055
966.4960	0.001076
967.2216	0.001856
967.9472	0.001624
968.6729	0.000991
969.3987	0.001898
970.1245	0.000464
970.8504	0.001730
971.5763	0.002447
972.3023	0.003101
973.0284	0.000042
973.7545	0.000485
974.4807	-0.000148
975.2070	0.000886
975.9333	0.001835
976.6597	0.000274
977.3862	-0.001350
978.1127	0.001814
978.8393	0.000591
979.5659	0.001498
980.2926	0.000359
981.0194	0.001223
981.7462	0.000527
982.4731	0.001455
983.2001	0.000380
983.9271	0.002194
984.6542	0.000000
985.3814	0.001434
986.1086	0.000654
986.8358	0.000063
987.5632	0.000886
988.2906	0.001835
989.0180	0.000485
989.7456	-0.000253
990.4732	0.000591
991.2008	0.000253
991.9285	0.000506
992.6563	0.001962
993.3841	-0.000928
994.1120	0.001688
994.8400	-0.000506
995.5680	0.000506
996.2961	0.000591
997.0242	0.000612
997.7524	0.000527
998.4807	0.000527
999.2090	0.000570
999.9374	-0.000591
1000.67	0.001034
1001.39	-0.000169
1002.12	-0.000042
1002.85	0.000844
1003.58	0.001013
1004.31	0.000127
1005.04	0.001118
1005.77	0.001076
1006.5	0.000991
1007.22	0.000380
1007.95	0.001413
1008.68	0.000295
1009.41	0.001097
1010.14	0.000021
1010.87	-0.000190
1011.6	0.000717
1012.33	0.000021
1013.06	0.001793
1013.79	-0.000274
1014.52	0.000865
1015.25	0.001329
1015.98	0.001392
1016.71	0.002700
1017.44	0.000654
1018.17	0.001666
1018.9	0.000865
1019.63	0.000865
1020.36	0.000042
1021.09	0.001160
1021.82	0.000063
1022.55	-0.000063
1023.03	-0.001181