File: Auto_Polymerization/Spectra/pure_compounds_spectra_test/DMSO+MMA_spectrum_2025-06-19_14-46-42.txt
# Wavelength (nm)	Intensity (a.u.)
197.7802	0.001937
198.3922	0.000756
199.0044	0.001811
199.6168	0.000186
200.2292	0.000714
200.8418	0.000524
201.4546	0.001030
202.0674	0.000144
202.6805	0.000925
203.2936	0.000925
203.9069	0.001030
204.5203	-0.000468
205.1338	0.000355
205.7475	0.000018
206.3614	0.002043
206.9753	0.001115
207.5894	-0.000004
208.2036	-0.001818
208.8180	-0.000130
209.4325	-0.000657
210.0471	0.002190
210.6618	0.001537
211.2767	0.002591
211.8918	0.000524
212.5069	0.000440
213.1222	0.001980
213.7376	0.000503
214.3532	0.000861
214.9689	0.001220
215.5847	0.000608
216.2007	0.001473
216.8168	0.000608
217.4330	0.001684
218.0494	0.000777
218.6659	0.002507
219.2825	0.001431
219.8992	0.001178
220.5161	0.000355
221.1332	0.000461
221.7503	0.001368
222.3676	0.000292
222.9850	0.002634
223.6026	-0.000130
224.2203	0.000756
224.8381	0.001262
225.4561	0.001072
226.0742	0.000482
226.6924	0.001937
227.3107	0.001811
227.9292	-0.000004
228.5478	0.000503
229.1666	0.001030
229.7855	0.000018
230.4045	-0.000214
231.0236	0.000503
231.6429	0.000081
232.2623	0.002127
232.8818	0.002001
233.5015	0.000735
234.1213	0.000313
234.7413	0.000629
235.3613	0.000271
235.9815	0.001537
236.6018	0.000186
237.2223	0.002043
237.8429	-0.000236
238.4636	0.001494
239.0845	-0.000236
239.7055	0.001811
240.3266	0.001410
240.9478	0.001431
241.5692	0.000735
242.1907	0.000608
242.8124	-0.000362
243.4341	0.001157
244.0560	0.000440
244.6781	0.000693
245.3002	0.000524
245.9225	0.000440
246.5449	0.001347
247.1675	0.000735
247.7902	0.001157
248.4130	0.001452
249.0359	0.001368
249.6590	-0.000004
250.2822	0.003013
250.9056	-0.000004
251.5290	0.000123
252.1526	0.002190
252.7763	0.001705
253.4002	-0.001016
254.0242	0.000904
254.6483	0.001769
255.2725	0.001262
255.8969	0.001136
256.5214	0.000524
257.1460	0.001030
257.7708	0.001874
258.3957	0.000672
259.0207	0.000418
259.6459	0.001621
260.2711	0.000250
260.8965	0.000735
261.5221	0.000482
262.1477	0.000714
262.7735	-0.000679
263.3995	0.001136
264.0255	-0.000657
264.6517	0.000925
265.2780	-0.000236
265.9044	0.000461
266.5310	-0.000130
267.1577	-0.000362
267.7845	0.001326
268.4114	0.000587
269.0385	0.002444
269.6657	0.000672
270.2931	0.000186
270.9205	0.001115
271.5481	0.000608
272.1758	0.000904
272.8037	0.001389
273.4316	0.000102
274.0597	0.000123
274.6880	-0.000172
275.3163	0.000376
275.9448	0.000693
276.5734	0.000271
277.2022	0.001389
277.8310	0.000461
278.4600	0.002338
279.0891	0.000165
279.7184	0.002296
280.3477	-0.000868
280.9772	0.001347
281.6069	0.001684
282.2366	-0.000172
282.8665	0.000672
283.4965	-0.000151
284.1266	0.001093
284.7569	0.000946
285.3873	0.000355
286.0178	0.001494
286.6484	-0.000362
287.2792	0.000861
287.9101	0.001093
288.5411	0.001684
289.1723	0.001072
289.8035	0.001389
290.4349	0.001283
291.0665	0.001136
291.6981	0.002275
292.3299	0.000946
292.9618	0.001115
293.5938	0.001093
294.2260	0.001494
294.8582	0.001410
295.4906	-0.000341
296.1232	0.000925
296.7558	0.000861
297.3886	-0.000721
298.0215	0.001726
298.6545	0.000904
299.2877	0.000186
299.9210	0.001136
300.5544	0.000376
301.1879	0.002908
301.8215	0.000714
302.4553	-0.001248
303.0892	0.000967
303.7233	0.000229
304.3574	0.001705
304.9917	0.002423
305.6261	0.000503
306.2606	-0.000362
306.8953	0.000250
307.5301	0.000714
308.1650	0.000735
308.8000	0.001811
309.4351	-0.000615
310.0704	0.002064
310.7058	0.002064
311.3413	0.001558
311.9770	0.000693
312.6127	0.001431
313.2486	0.001241
313.8846	0.001558
314.5208	0.002001
315.1570	0.001515
315.7934	0.001558
316.4299	0.001199
317.0666	0.001579
317.7033	0.001452
318.3402	0.001937
318.9772	0.002570
319.6143	0.002444
320.2516	0.002739
320.8890	0.002064
321.5265	0.001642
322.1641	0.002106
322.8018	0.003245
323.4397	0.003435
324.0777	0.004785
324.7158	0.003963
325.3540	0.001916
325.9924	0.004342
326.6308	0.004469
327.2694	0.003731
327.9082	0.002971
328.5470	0.002296
329.1860	0.005081
329.8251	0.003604
330.4643	0.004174
331.1036	0.004532
331.7431	0.005038
332.3826	0.004026
333.0223	0.005038
333.6622	0.005355
334.3021	0.005313
334.9422	0.004975
335.5823	0.004701
336.2227	0.004743
336.8631	0.005840
337.5036	0.004785
338.1443	0.004996
338.7851	0.006726
339.4260	0.004638
340.0670	0.005608
340.7082	0.005861
341.3495	0.004870
341.9909	0.006663
342.6324	0.005861
343.2740	0.006895
343.9158	0.006895
344.5577	0.008351
345.1997	0.006473
345.8418	0.006473
346.4840	0.007422
347.1264	0.007802
347.7689	0.007676
348.4115	0.008941
349.0542	0.007022
349.6971	0.008983
350.3400	0.009005
350.9831	0.009848
351.6263	0.008161
352.2696	0.009785
352.9131	0.008941
353.5566	0.008055
354.2003	0.009806
354.8441	0.009469
355.4881	0.010502
356.1321	0.009891
356.7763	0.009300
357.4206	0.011009
358.0650	0.011009
358.7095	0.009553
359.3541	0.009764
359.9989	0.011051
360.6438	0.011114
361.2888	0.010650
361.9339	0.010038
362.5791	0.011831
363.2245	0.010587
363.8699	0.010671
364.5155	0.010439
365.1612	0.011241
365.8071	0.010313
366.4530	0.011515
367.0991	0.013287
367.7453	0.014025
368.3916	0.011937
369.0380	0.014004
369.6845	0.013709
370.3312	0.014616
370.9780	0.014342
371.6249	0.014152
372.2719	0.014131
372.9190	0.014511
373.5663	0.012000
374.2136	0.015629
374.8611	0.014806
375.5087	0.018392
376.1564	0.017675
376.8043	0.017084
377.4522	0.017274
378.1003	0.017992
378.7485	0.020882
379.3968	0.021430
380.0452	0.021599
380.6938	0.023055
381.3424	0.019700
381.9912	0.022422
382.6401	0.021494
383.2891	0.020903
383.9382	0.022358
384.5875	0.023645
385.2368	0.024152
385.8863	0.025122
386.5359	0.024320
387.1856	0.024827
387.8355	0.027021
388.4854	0.025206
389.1355	0.025860
389.7856	0.025924
390.4359	0.024616
391.0863	0.026282
391.7369	0.028687
392.3875	0.031746
393.0383	0.033118
393.6891	0.029130
394.3401	0.030375
394.9912	0.030945
395.6425	0.030185
396.2938	0.032063
396.9453	0.032864
397.5968	0.034362
398.2485	0.035164
398.9003	0.038497
399.5522	0.036641
400.2043	0.035269
400.8564	0.035776
401.5087	0.035354
402.1610	0.034362
402.8135	0.035333
403.4661	0.035016
404.1189	0.035818
404.7717	0.035586
405.4246	0.036662
406.0777	0.038223
406.7309	0.036430
407.3842	0.033518
408.0376	0.034679
408.6911	0.036240
409.3448	0.035733
409.9985	0.036767
410.6524	0.035755
411.3064	0.035480
411.9605	0.034869
412.6147	0.036704
413.2690	0.037759
413.9234	0.039826
414.5780	0.036957
415.2326	0.038117
415.8874	0.036662
416.5423	0.036282
417.1973	0.036113
417.8524	0.037695
418.5077	0.038898
419.1630	0.039911
419.8185	0.037632
420.4741	0.043370
421.1298	0.042337
421.7856	0.048476
422.4415	0.045585
423.0975	0.046999
423.7536	0.044953
424.4099	0.043919
425.0663	0.044573
425.7228	0.042484
426.3793	0.037442
427.0361	0.039468
427.6929	0.041071
428.3498	0.040986
429.0068	0.039425
429.6640	0.046809
430.3213	0.049130
430.9787	0.046915
431.6362	0.042210
432.2938	0.041261
432.9515	0.041767
433.6093	0.046197
434.2673	0.048982
434.9253	0.041514
435.5835	0.043307
436.2418	0.044657
436.9001	0.046535
437.5586	0.043476
438.2173	0.046598
438.8760	0.048138
439.5348	0.046429
440.1938	0.046282
440.8528	0.048244
441.5120	0.058433
442.1713	0.054952
442.8307	0.053096
443.4902	0.056176
444.1498	0.056408
444.8095	0.054298
445.4694	0.055838
446.1293	0.053560
446.7894	0.055332
447.4496	0.052125
448.1098	0.053011
448.7702	0.052083
449.4307	0.054087
450.0914	0.050691
450.7521	0.054129
451.4129	0.047526
452.0739	0.050332
452.7349	0.051324
453.3961	0.048476
454.0574	0.048265
454.7188	0.049298
455.3803	0.051366
456.0419	0.048982
456.7036	0.047168
457.3654	0.050395
458.0274	0.053412
458.6894	0.055648
459.3516	0.054277
460.0138	0.055585
460.6762	0.053011
461.3387	0.050206
462.0013	0.050923
462.6640	0.049235
463.3268	0.049362
463.9897	0.052062
464.6528	0.056323
465.3159	0.056788
465.9792	0.061112
466.6425	0.052189
467.3060	0.050564
467.9696	0.049425
468.6333	0.050079
469.2970	0.046577
469.9610	0.044552
470.6250	0.042548
471.2891	0.041514
471.9533	0.044573
472.6177	0.043708
473.2821	0.046176
473.9467	0.048687
474.6113	0.045480
475.2761	0.051324
475.9410	0.050944
476.6060	0.050459
477.2711	0.047843
477.9363	0.050206
478.6016	0.048054
479.2670	0.052273
479.9325	0.052505
480.5982	0.053750
481.2639	0.054425
481.9298	0.053159
482.5957	0.054172
483.2618	0.052864
483.9280	0.052421
484.5943	0.059720
485.2606	0.061998
485.9271	0.196318
486.5937	0.137164
487.2605	0.101786
487.9273	0.060775
488.5942	0.055205
489.2612	0.052843
489.9284	0.056724
490.5956	0.053855
491.2630	0.054129
491.9304	0.052125
492.5980	0.052695
493.2657	0.053876
493.9334	0.051176
494.6013	0.054361
495.2693	0.051281
495.9374	0.051471
496.6056	0.057969
497.2739	0.053454
497.9423	0.051155
498.6109	0.051598
499.2795	0.055437
499.9482	0.058855
500.6171	0.051999
501.2860	0.052547
501.9551	0.056809
502.6242	0.057336
503.2935	0.058117
503.9628	0.058117
504.6323	0.052083
505.3019	0.053096
505.9716	0.052821
506.6414	0.056176
507.3113	0.050522
507.9813	0.048961
508.6514	0.051682
509.3216	0.051260
509.9919	0.048961
510.6623	0.049425
511.3329	0.048222
512.0035	0.050163
512.6742	0.045564
513.3451	0.046429
514.0160	0.044425
514.6871	0.046176
515.3582	0.041493
516.0295	0.042105
516.7008	0.044193
517.3723	0.044868
518.0439	0.042463
518.7155	0.042885
519.3873	0.044088
520.0592	0.041345
520.7312	0.039847
521.4033	0.040438
522.0755	0.037949
522.7478	0.038835
523.4202	0.036746
524.0927	0.041451
524.7653	0.039953
525.4380	0.037653
526.1108	0.037506
526.7837	0.038117
527.4568	0.038286
528.1299	0.039299
528.8031	0.044003
529.4765	0.040649
530.1499	0.038518
530.8234	0.038476
531.4971	0.036113
532.1708	0.039531
532.8447	0.039805
533.5186	0.044657
534.1927	0.046113
534.8668	0.049889
535.5411	0.048560
536.2155	0.044826
536.8899	0.040143
537.5645	0.042442
538.2392	0.046598
538.9139	0.048940
539.5888	0.048834
540.2638	0.047505
540.9389	0.047379
541.6140	0.046514
542.2893	0.048539
542.9647	0.047400
543.6402	0.049130
544.3158	0.053180
544.9915	0.051028
545.6673	0.052020
546.3432	0.045923
547.0192	0.047801
547.6953	0.053412
548.3715	0.058475
549.0478	0.055100
549.7242	0.050986
550.4007	0.051408
551.0773	0.045902
551.7540	0.047104
552.4308	0.057273
553.1077	0.053665
553.7847	0.054045
554.4618	0.051408
555.1390	0.050395
555.8163	0.056724
556.4937	0.055838
557.1712	0.053454
557.8488	0.053264
558.5266	0.049362
559.2044	0.047526
559.8823	0.050733
560.5603	0.055311
561.2384	0.063011
561.9166	0.059614
562.5949	0.057990
563.2733	0.060606
563.9519	0.057589
564.6305	0.063897
565.3092	0.068158
565.9880	0.062673
566.6669	0.067357
567.3459	0.079361
568.0250	0.083263
568.7043	0.093748
569.3836	0.114043
570.0630	0.145750
570.7425	0.155033
571.4221	0.174462
572.1018	0.191614
572.7816	0.165771
573.4615	0.186361
574.1415	0.213090
574.8216	0.226486
575.5018	0.228785
576.1821	0.200453
576.8626	0.234059
577.5431	0.246949
578.2237	0.308466
578.9044	0.248447
579.5851	0.250367
580.2660	0.255620
580.9470	0.249375
581.6281	0.387851
582.3093	0.366290
582.9906	0.286146
583.6720	0.230599
584.3535	0.230684
585.0351	0.262391
585.7167	0.275260
586.3985	0.233342
587.0804	0.248848
587.7624	0.255767
588.4445	0.230220
589.1266	0.205157
589.8089	0.185116
590.4913	0.167585
591.1737	0.146172
591.8563	0.149948
592.5389	0.173091
593.2217	0.227456
593.9046	0.211634
594.5875	0.187711
595.2705	0.217921
595.9537	0.190495
596.6369	0.160265
597.3203	0.162585
598.0037	0.158239
598.6872	0.169906
599.3709	0.200010
600.0546	0.196972
600.7384	0.197056
601.4223	0.199947
602.1064	0.182226
602.7905	0.181150
603.4747	0.200896
604.1590	0.185896
604.8434	0.165433
605.5279	0.175538
606.2125	0.187268
606.8972	0.164252
607.5819	0.172395
608.2668	0.161362
608.9518	0.150392
609.6369	0.140054
610.3220	0.160180
611.0073	0.146489
611.6927	0.147607
612.3781	0.133388
613.0637	0.135392
613.7493	0.132101
614.4351	0.133873
615.1209	0.127819
615.8068	0.136384
616.4929	0.121321
617.1790	0.110182
617.8652	0.114127
618.5515	0.105815
619.2379	0.096216
619.9244	0.100182
620.6110	0.100984
621.2977	0.078411
621.9845	0.083896
622.6714	0.086829
623.3584	0.093875
624.0454	0.091765
624.7326	0.094107
625.4199	0.086702
626.1072	0.079614
626.7947	0.073475
627.4822	0.074023
628.1698	0.067125
628.8576	0.062547
629.5454	0.065648
630.2333	0.064066
630.9213	0.057125
631.6094	0.055606
632.2976	0.054172
632.9859	0.048117
633.6743	0.046050
634.3628	0.045374
635.0514	0.043244
635.7400	0.042358
636.4288	0.045839
637.1177	0.046893
637.8066	0.042927
638.4957	0.043602
639.1848	0.042716
639.8740	0.041305
640.5633	0.039295
641.2528	0.035515
641.9423	0.034386
642.6319	0.031497
643.3216	0.028847
644.0113	0.031606
644.7012	0.026964
645.3912	0.027660
646.0812	0.028550
646.7714	0.026603
647.4616	0.024662
648.1520	0.031816
648.8424	0.035346
649.5329	0.034623
650.2236	0.032128
650.9143	0.030256
651.6051	0.031560
652.2960	0.032532
652.9870	0.032944
653.6780	0.034732
654.3692	0.035277
655.0605	0.065172
655.7518	0.985649
656.4433	1.000000
657.1348	0.890263
657.8264	0.538959
658.5181	0.413536
659.2099	0.324791
659.9018	0.089744
660.5938	0.031538
661.2859	0.025029
661.9781	0.025535
662.6704	0.021619
663.3627	0.023899
664.0552	0.023294
664.7477	0.022969
665.4403	0.023401
666.1330	0.025138
666.8259	0.020933
667.5188	0.021789
668.2117	0.022388
668.9048	0.020903
669.5980	0.024215
670.2913	0.023561
670.9846	0.022928
671.6781	0.030270
672.3716	0.034805
673.0652	0.033518
673.7589	0.031219
674.4527	0.031029
675.1466	0.026725
675.8406	0.026008
676.5347	0.026388
677.2288	0.024447
677.9231	0.029510
678.6174	0.029426
679.3119	0.033455
680.0064	0.037063
680.7010	0.036050
681.3957	0.034953
682.0905	0.031177
682.7854	0.030417
683.4803	0.031683
684.1754	0.035143
684.8705	0.038708
685.5658	0.044510
686.2611	0.045374
686.9565	0.044045
687.6520	0.045754
688.3476	0.040965
689.0433	0.038560
689.7390	0.036261
690.4349	0.033603
691.1308	0.038349
691.8269	0.037442
692.5230	0.040649
693.2192	0.039446
693.9155	0.039889
694.6119	0.033244
695.3083	0.035480
696.0049	0.030248
696.7016	0.036852
697.3983	0.039784
698.0951	0.036978
698.7920	0.037780
699.4890	0.035523
700.1861	0.033244
700.8833	0.030438
701.5806	0.029384
702.2779	0.030839
702.9753	0.031662
703.6729	0.030755
704.3705	0.029130
705.0682	0.026873
705.7660	0.024510
706.4638	0.031999
707.1618	0.037611
707.8599	0.038919
708.5580	0.037548
709.2562	0.035501
709.9545	0.036683
710.6529	0.037041
711.3514	0.032189
712.0500	0.030101
712.7486	0.030607
713.4474	0.033434
714.1462	0.037126
714.8451	0.036472
715.5441	0.035839
716.2432	0.032274
716.9424	0.030101
717.6416	0.028223
718.3410	0.029911
719.0404	0.029890
719.7399	0.031092
720.4395	0.027485
721.1392	0.030059
721.8390	0.030670
722.5388	0.028497
723.2388	0.028898
723.9388	0.029299
724.6389	0.028160
725.3391	0.032210
726.0394	0.032485
726.7398	0.034510
727.4403	0.031704
728.1408	0.035459
728.8414	0.035544
729.5421	0.038371
730.2429	0.036831
730.9438	0.042590
731.6448	0.044763
732.3458	0.041324
733.0470	0.045501
733.7482	0.046661
734.4495	0.054277
735.1509	0.050184
735.8524	0.049973
736.5539	0.049826
737.2556	0.050438
737.9573	0.043349
738.6591	0.039700
739.3610	0.048497
740.0630	0.043455
740.7651	0.039868
741.4672	0.035480
742.1695	0.033772
742.8718	0.035987
743.5742	0.031767
744.2767	0.029447
744.9792	0.030459
745.6819	0.027126
746.3846	0.030059
747.0874	0.030755
747.7903	0.031367
748.4933	0.029784
749.1964	0.032548
749.8995	0.037231
750.6028	0.041788
751.3061	0.039446
752.0095	0.041915
752.7130	0.037906
753.4166	0.038012
754.1202	0.042822
754.8239	0.041957
755.5278	0.043244
756.2317	0.047568
756.9356	0.053307
757.6397	0.061977
758.3438	0.057969
759.0481	0.055669
759.7524	0.062294
760.4568	0.064277
761.1613	0.061998
761.8658	0.053876
762.5705	0.050965
763.2752	0.051999
763.9800	0.048898
764.6849	0.060416
765.3898	0.056218
766.0949	0.050881
766.8000	0.040628
767.5052	0.040164
768.2105	0.044362
768.9159	0.049341
769.6214	0.048201
770.3269	0.046893
771.0325	0.048033
771.7382	0.045522
772.4440	0.043202
773.1499	0.042231
773.8558	0.039025
774.5618	0.035269
775.2679	0.032611
775.9741	0.027886
776.6804	0.026451
777.3868	0.024848
778.0932	0.026683
778.7997	0.029088
779.5063	0.030459
780.2130	0.029974
780.9197	0.031029
781.6265	0.034046
782.3335	0.034953
783.0405	0.032864
783.7475	0.032907
784.4547	0.030544
785.1619	0.029320
785.8692	0.029742
786.5766	0.028054
787.2841	0.029067
787.9917	0.030691
788.6993	0.032696
789.4070	0.031388
790.1148	0.025502
790.8227	0.025734
791.5306	0.025544
792.2387	0.024531
792.9468	0.022485
793.6550	0.025755
794.3632	0.033624
795.0716	0.033223
795.7800	0.030438
796.4885	0.024363
797.1971	0.020523
797.9058	0.025101
798.6145	0.023350
799.3233	0.024721
800.0322	0.019764
800.7412	0.020017
801.4503	0.019110
802.1594	0.017570
802.8686	0.017527
803.5779	0.019236
804.2873	0.017886
804.9968	0.017295
805.7063	0.019426
806.4159	0.024574
807.1256	0.024785
807.8354	0.024405
808.5452	0.021937
809.2551	0.023709
809.9651	0.018751
810.6752	0.021114
811.3853	0.020186
812.0956	0.017802
812.8059	0.013836
813.5163	0.017612
814.2267	0.020207
814.9373	0.018667
815.6479	0.015692
816.3586	0.014722
817.0694	0.015734
817.7802	0.014025
818.4912	0.014279
819.2022	0.012570
819.9133	0.012844
820.6244	0.016430
821.3357	0.016747
822.0470	0.013793
822.7584	0.013582
823.4698	0.012485
824.1814	0.011262
824.8930	0.012886
825.6047	0.013857
826.3165	0.012464
827.0283	0.015376
827.7402	0.015397
828.4522	0.012274
829.1643	0.013920
829.8765	0.012085
830.5887	0.011431
831.3010	0.009258
832.0134	0.007865
832.7259	0.009532
833.4384	0.009806
834.1510	0.011642
834.8637	0.010713
835.5765	0.011009
836.2893	0.009954
837.0022	0.009152
837.7152	0.008477
838.4283	0.008667
839.1414	0.007612
839.8546	0.009363
840.5679	0.006789
841.2813	0.007633
841.9947	0.006473
842.7082	0.005671
843.4218	0.003857
844.1355	0.005946
844.8492	0.006368
845.5631	0.005334
846.2770	0.005629
846.9909	0.005144
847.7050	0.006557
848.4191	0.004806
849.1333	0.005903
849.8475	0.005102
850.5619	0.004469
851.2763	0.005882
851.9908	0.005587
852.7053	0.009363
853.4200	0.014722
854.1347	0.013625
854.8495	0.013139
855.5643	0.011473
856.2792	0.013477
856.9942	0.013266
857.7093	0.011072
858.4245	0.010840
859.1397	0.009321
859.8550	0.007422
860.5704	0.007697
861.2858	0.007718
862.0013	0.006621
862.7169	0.007380
863.4326	0.006663
864.1483	0.007507
864.8642	0.006452
865.5800	0.005460
866.2960	0.005629
867.0120	0.005988
867.7281	0.006072
868.4443	0.005038
869.1606	0.005840
869.8769	0.006262
870.5933	0.005524
871.3097	0.007760
872.0263	0.005313
872.7429	0.004553
873.4596	0.005165
874.1763	0.005903
874.8932	0.005460
875.6101	0.005692
876.3270	0.007106
877.0441	0.003688
877.7612	0.006832
878.4784	0.007359
879.1957	0.007950
879.9130	0.008266
880.6304	0.008140
881.3479	0.007676
882.0654	0.006283
882.7831	0.007254
883.5007	0.008435
884.2185	0.007000
884.9363	0.007064
885.6542	0.007612
886.3722	0.007127
887.0903	0.006726
887.8084	0.005587
888.5266	0.005756
889.2448	0.004005
889.9632	0.004996
890.6816	0.005967
891.4001	0.004469
892.1186	0.006325
892.8372	0.004743
893.5559	0.005165
894.2747	0.004785
894.9935	0.005376
895.7124	0.005376
896.4314	0.005714
897.1504	0.005840
897.8695	0.004659
898.5887	0.005207
899.3079	0.006072
900.0272	0.002823
900.7466	0.005903
901.4661	0.004553
902.1856	0.005714
902.9052	0.004743
903.6249	0.004131
904.3446	0.004342
905.0644	0.005017
905.7843	0.006157
906.5043	0.004954
907.2243	0.005292
907.9444	0.003857
908.6645	0.004174
909.3847	0.005144
910.1050	0.003646
910.8254	0.005017
911.5458	0.003878
912.2663	0.004511
912.9869	0.006114
913.7075	0.004785
914.4283	0.002823
915.1490	0.003984
915.8699	0.002802
916.5908	0.004448
917.3118	0.004131
918.0328	0.004321
918.7539	0.005355
919.4751	0.004216
920.1964	0.002950
920.9177	0.003899
921.6391	0.003477
922.3606	0.004300
923.0821	0.003077
923.8037	0.003456
924.5254	0.002718
925.2471	0.003520
925.9689	0.002929
926.6908	0.003330
927.4127	0.003920
928.1347	0.003773
928.8568	0.001853
929.5789	0.004828
930.3011	0.001473
931.0234	0.002212
931.7457	0.002064
932.4681	0.002507
933.1906	0.001283
933.9131	0.003245
934.6358	0.004026
935.3584	0.002655
936.0812	0.001747
936.8040	0.001431
937.5269	0.003351
938.2498	0.002423
938.9728	0.000756
939.6959	0.001832
940.4190	0.003161
941.1422	0.002507
941.8655	0.001832
942.5889	0.001283
943.3123	0.000988
944.0357	0.001072
944.7593	0.002233
945.4829	-0.000594
946.2066	0.002844
946.9303	0.001283
947.6541	0.002001
948.3780	0.001663
949.1019	0.002338
949.8259	0.001684
950.5500	0.001537
951.2741	0.000440
951.9983	0.000925
952.7226	0.000714
953.4469	0.002106
954.1713	0.001199
954.8958	0.001051
955.6203	0.000102
956.3449	0.000798
957.0696	0.000123
957.7943	0.003077
958.5191	0.000461
959.2439	0.001515
959.9688	0.001600
960.6938	0.002612
961.4189	0.001832
962.1440	0.001958
962.8692	0.001157
963.5944	0.001347
964.3197	0.000861
965.0451	0.000840
965.7705	-0.000214
966.4960	0.001241
967.2216	0.000545
967.9472	0.002106
968.6729	0.000355
969.3987	0.001347
970.1245	0.001072
970.8504	0.001157
971.5763	0.000777
972.3023	0.000039
973.0284	0.002127
973.7545	0.002275
974.4807	0.000756
975.2070	0.001663
975.9333	0.000250
976.6597	0.000904
977.3862	0.001262
978.1127	0.001368
978.8393	-0.000278
979.5659	0.001389
980.2926	0.000482
981.0194	0.000819
981.7462	0.001537
982.4731	0.001283
983.2001	0.000545
983.9271	0.000988
984.6542	-0.000468
985.3814	0.001178
986.1086	0.000482
986.8358	0.000608
987.5632	0.000418
988.2906	0.000672
989.0180	0.001980
989.7456	0.000461
990.4732	-0.000214
991.2008	0.000798
991.9285	-0.000214
992.6563	0.000650
993.3841	-0.000573
994.1120	-0.000531
994.8400	0.001853
995.5680	-0.000552
996.2961	-0.000046
997.0242	0.002022
997.7524	0.001452
998.4807	0.001515
999.2090	0.000292
999.9374	0.000925
1000.67	0.001304
1001.39	0.000988
1002.12	0.001558
1002.85	0.000102
1003.58	0.000165
1004.31	0.000482
1005.04	0.000988
1005.77	0.000946
1006.5	0.000271
1007.22	0.000397
1007.95	0.000819
1008.68	0.000123
1009.41	0.000650
1010.14	-0.000025
1010.87	0.001093
1011.6	-0.000193
1012.33	-0.000130
1013.06	0.000524
1013.79	0.000735
1014.52	-0.000236
1015.25	0.000376
1015.98	0.000018
1016.71	0.000018
1017.44	-0.000341
1018.17	0.000693
1018.9	-0.000257
1019.63	0.000629
1020.36	0.000650
1021.09	0.000524
1021.82	0.000376
1022.55	0.000355
1023.03	0.001072