File: Auto_Polymerization/Spectra/pure_compounds_spectra_test/DMSO+MMA_spectrum_2025-06-19_14-47-06.txt
# Wavelength (nm)	Intensity (a.u.)
197.7802	0.000091
198.3922	-0.000563
199.0044	-0.000331
199.6168	-0.000183
200.2292	0.001886
200.8418	-0.000331
201.4546	-0.000267
202.0674	0.000556
202.6805	-0.000246
203.2936	-0.000352
203.9069	-0.001091
204.5203	0.001295
205.1338	0.000113
205.7475	0.000493
206.3614	0.000936
206.9753	0.000788
207.5894	0.000366
208.2036	0.000493
208.8180	0.001084
209.4325	0.000704
210.0471	0.000176
210.6618	-0.001027
211.2767	-0.000288
211.8918	-0.000563
212.5069	0.000387
213.1222	0.000704
213.7376	0.001907
214.3532	-0.000225
214.9689	0.000872
215.5847	0.000387
216.2007	0.000260
216.8168	-0.000014
217.4330	-0.000500
218.0494	-0.000457
218.6659	0.001273
219.2825	-0.001196
219.8992	0.000049
220.5161	0.001295
221.1332	0.001632
221.7503	0.000577
222.3676	-0.000584
222.9850	0.001105
223.6026	0.000134
224.2203	-0.000626
224.8381	0.000767
225.4561	0.001337
226.0742	0.001084
226.6924	0.000788
227.3107	0.000894
227.9292	-0.000478
228.5478	0.000704
229.1666	0.000936
229.7855	0.001548
230.4045	0.000746
231.0236	0.000872
231.6429	0.000682
232.2623	0.000682
232.8818	0.000471
233.5015	0.000176
234.1213	-0.000436
234.7413	-0.000310
235.3613	0.000936
235.9815	0.000682
236.6018	-0.000225
237.2223	0.000493
237.8429	-0.001470
238.4636	0.001126
239.0845	-0.000457
239.7055	0.000239
240.3266	0.000345
240.9478	-0.000711
241.5692	-0.000267
242.1907	0.001295
242.8124	0.000007
243.4341	0.001358
244.0560	0.000091
244.6781	0.000070
245.3002	0.000366
245.9225	0.001590
246.5449	-0.000521
247.1675	-0.000099
247.7902	-0.001428
248.4130	0.000640
249.0359	-0.000647
249.6590	-0.000141
250.2822	0.000281
250.9056	0.000661
251.5290	-0.000605
252.1526	0.001020
252.7763	-0.001112
253.4002	0.000767
254.0242	-0.000415
254.6483	-0.000647
255.2725	-0.000690
255.8969	0.000493
256.5214	0.000197
257.1460	0.001506
257.7708	-0.001175
258.3957	0.000450
259.0207	0.000514
259.6459	0.000281
260.2711	-0.001217
260.8965	0.000514
261.5221	-0.000457
262.1477	0.000450
262.7735	0.000725
263.3995	0.000640
264.0255	-0.001196
264.6517	0.000493
265.2780	-0.000521
265.9044	0.000070
266.5310	-0.000690
267.1577	0.000851
267.7845	0.000471
268.4114	0.001168
269.0385	-0.000288
269.6657	0.000345
270.2931	-0.000267
270.9205	0.000134
271.5481	-0.000014
272.1758	-0.000584
272.8037	-0.000120
273.4316	0.000936
274.0597	0.000324
274.6880	0.000028
275.3163	0.000661
275.9448	0.000746
276.5734	-0.000246
277.2022	0.001463
277.8310	0.000661
278.4600	0.000345
279.0891	0.000345
279.7184	0.000957
280.3477	0.000619
280.9772	0.000746
281.6069	0.000113
282.2366	0.000704
282.8665	-0.000563
283.4965	0.000957
284.1266	-0.000162
284.7569	-0.000331
285.3873	-0.000542
286.0178	0.000134
286.6484	0.000113
287.2792	-0.000225
287.9101	-0.000858
288.5411	-0.000985
289.1723	0.000872
289.8035	0.001126
290.4349	0.000429
291.0665	0.000113
291.6981	0.000746
292.3299	0.001696
292.9618	0.000894
293.5938	0.001062
294.2260	0.000176
294.8582	0.000429
295.4906	0.000091
296.1232	0.002160
296.7558	0.001062
297.3886	-0.000056
298.0215	0.000598
298.6545	0.000725
299.2877	0.000155
299.9210	0.000155
300.5544	-0.000626
301.1879	0.000704
301.8215	0.001485
302.4553	0.000366
303.0892	0.000767
303.7233	0.001400
304.3574	0.001569
304.9917	-0.000183
305.6261	0.001020
306.2606	0.000028
306.8953	0.001421
307.5301	0.001865
308.1650	0.000366
308.8000	0.002287
309.4351	0.000028
310.0704	0.000894
310.7058	-0.000774
311.3413	-0.000225
311.9770	0.001569
312.6127	0.000978
313.2486	0.000281
313.8846	0.000851
314.5208	0.001231
315.1570	0.003279
315.7934	0.000682
316.4299	0.000704
317.0666	0.000070
317.7033	0.000070
318.3402	0.000809
318.9772	0.002202
319.6143	0.001991
320.2516	0.000450
320.8890	0.001210
321.5265	0.001886
322.1641	0.002772
322.8018	0.001527
323.4397	0.002434
324.0777	0.003131
324.7158	0.002519
325.3540	0.002223
325.9924	0.003279
326.6308	0.001843
327.2694	0.002033
327.9082	0.003553
328.5470	0.001843
329.1860	0.003448
329.8251	0.001865
330.4643	0.003426
331.1036	0.002350
331.7431	0.003384
332.3826	0.002540
333.0223	0.003891
333.6622	0.002456
334.3021	0.005010
334.9422	0.004587
335.5823	0.004229
336.2227	0.003363
336.8631	0.003933
337.5036	0.004419
338.1443	0.003300
338.7851	0.003490
339.4260	0.004587
340.0670	0.003616
340.7082	0.006529
341.3495	0.006677
341.9909	0.006234
342.6324	0.005980
343.2740	0.005896
343.9158	0.005432
344.5577	0.006424
345.1997	0.006107
345.8418	0.005368
346.4840	0.006213
347.1264	0.007184
347.7689	0.007163
348.4115	0.008091
349.0542	0.008155
349.6971	0.008155
350.3400	0.007690
350.9831	0.009315
351.6263	0.007585
352.2696	0.008260
352.9131	0.009168
353.5566	0.008450
354.2003	0.008133
354.8441	0.009062
355.4881	0.007922
356.1321	0.006994
356.7763	0.009041
357.4206	0.010075
358.0650	0.007606
358.7095	0.009505
359.3541	0.010308
359.9989	0.009147
360.6438	0.009337
361.2888	0.011004
361.9339	0.010202
362.5791	0.008556
363.2245	0.009928
363.8699	0.010941
364.5155	0.011131
365.1612	0.010962
365.8071	0.012334
366.4530	0.011194
367.0991	0.012482
367.7453	0.013073
368.3916	0.012629
369.0380	0.014001
369.6845	0.013347
370.3312	0.013030
370.9780	0.013833
371.6249	0.013579
372.2719	0.012418
372.9190	0.016598
373.5663	0.014487
374.2136	0.013917
374.8611	0.013453
375.5087	0.015394
376.1564	0.016154
376.8043	0.017125
377.4522	0.017970
378.1003	0.019764
378.7485	0.017822
379.3968	0.020186
380.0452	0.019320
380.6938	0.021241
381.3424	0.020904
381.9912	0.021157
382.6401	0.020692
383.2891	0.021748
383.9382	0.020080
384.5875	0.023035
385.2368	0.021685
385.8863	0.022972
386.5359	0.022698
387.1856	0.025146
387.8355	0.025188
388.4854	0.026518
389.1355	0.024239
389.7856	0.024787
390.4359	0.024175
391.0863	0.026455
391.7369	0.025843
392.3875	0.028376
393.0383	0.031394
393.6891	0.030085
394.3401	0.029980
394.9912	0.030465
395.6425	0.030212
396.2938	0.031732
396.9453	0.032829
397.5968	0.032449
398.2485	0.035067
398.9003	0.037304
399.5522	0.035447
400.2043	0.034391
400.8564	0.034286
401.5087	0.034771
402.1610	0.034307
402.8135	0.032618
403.4661	0.032112
404.1189	0.035658
404.7717	0.035700
405.4246	0.037874
406.0777	0.039119
406.7309	0.034349
407.3842	0.032492
408.0376	0.034645
408.6911	0.034623
409.3448	0.034497
409.9985	0.035046
410.6524	0.033526
411.3064	0.035025
411.9605	0.035447
412.6147	0.037220
413.2690	0.035784
413.9234	0.038571
414.5780	0.035046
415.2326	0.035236
415.8874	0.035404
416.5423	0.036333
417.1973	0.035594
417.8524	0.036164
418.5077	0.036840
419.1630	0.040745
419.8185	0.036903
420.4741	0.037980
421.1298	0.040702
421.7856	0.046275
422.4415	0.045409
423.0975	0.043826
423.7536	0.042328
424.4099	0.040829
425.0663	0.042982
425.7228	0.038972
426.3793	0.039668
427.0361	0.040534
427.6929	0.040428
428.3498	0.039689
429.0068	0.041948
429.6640	0.048681
430.3213	0.049504
430.9787	0.046359
431.6362	0.043130
432.2938	0.039584
432.9515	0.038549
433.6093	0.044840
434.2673	0.047351
434.9253	0.043003
435.5835	0.042370
436.2418	0.044396
436.9001	0.045452
437.5586	0.042729
438.2173	0.045093
438.8760	0.045431
439.5348	0.045705
440.1938	0.044966
440.8528	0.047119
441.5120	0.054422
442.1713	0.053684
442.8307	0.050982
443.4902	0.056217
444.1498	0.053283
444.8095	0.053536
445.4694	0.054612
446.1293	0.051320
446.7894	0.053789
447.4496	0.053240
448.1098	0.052143
448.7702	0.050665
449.4307	0.052354
450.0914	0.052101
450.7521	0.050813
451.4129	0.047225
452.0739	0.049145
452.7349	0.050285
453.3961	0.046613
454.0574	0.047942
454.7188	0.043299
455.3803	0.049504
456.0419	0.049969
456.7036	0.048618
457.3654	0.049293
458.0274	0.051341
458.6894	0.051995
459.3516	0.049293
460.0138	0.053451
460.6762	0.050032
461.3387	0.052628
462.0013	0.046064
462.6640	0.046507
463.3268	0.047942
463.9897	0.050876
464.6528	0.055457
465.3159	0.056913
465.9792	0.058285
466.6425	0.052544
467.3060	0.048301
467.9696	0.047182
468.6333	0.048069
469.2970	0.044249
469.9610	0.044945
470.6250	0.041209
471.2891	0.040956
471.9533	0.040133
472.6177	0.043130
473.2821	0.047858
473.9467	0.047372
474.6113	0.046085
475.2761	0.050095
475.9410	0.047985
476.6060	0.050412
477.2711	0.044206
477.9363	0.048681
478.6016	0.047837
479.2670	0.049124
479.9325	0.051953
480.5982	0.051066
481.2639	0.053663
481.9298	0.053093
482.5957	0.050032
483.2618	0.050919
483.9280	0.052523
484.5943	0.057166
485.2606	0.061113
485.9271	0.190524
486.5937	0.132879
487.2605	0.105102
487.9273	0.061916
488.5942	0.055752
489.2612	0.052924
489.9284	0.054359
490.5956	0.052966
491.2630	0.054359
491.9304	0.050876
492.5980	0.054127
493.2657	0.050074
493.9334	0.050053
494.6013	0.052438
495.2693	0.051425
495.9374	0.052839
496.6056	0.058327
497.2739	0.052164
497.9423	0.048111
498.6109	0.051678
499.2795	0.054106
499.9482	0.052945
500.6171	0.052860
501.2860	0.053937
501.9551	0.055288
502.6242	0.056491
503.2935	0.055499
503.9628	0.054528
504.6323	0.051256
505.3019	0.051003
505.9716	0.049357
506.6414	0.053219
507.3113	0.049842
507.9813	0.052945
508.6514	0.051193
509.3216	0.048639
509.9919	0.048259
510.6623	0.049399
511.3329	0.047626
512.0035	0.045536
512.6742	0.045241
513.3451	0.047562
514.0160	0.045621
514.6871	0.044713
515.3582	0.040470
516.0295	0.042433
516.7008	0.043679
517.3723	0.042898
518.0439	0.040428
518.7155	0.037684
519.3873	0.041716
520.0592	0.042201
520.7312	0.038317
521.4033	0.038613
522.0755	0.036375
522.7478	0.040470
523.4202	0.035742
524.0927	0.037853
524.7653	0.038402
525.4380	0.038782
526.1108	0.037346
526.7837	0.037051
527.4568	0.038022
528.1299	0.036798
528.8031	0.044481
529.4765	0.039288
530.1499	0.040681
530.8234	0.038993
531.4971	0.036481
532.1708	0.039225
532.8447	0.039647
533.5186	0.046296
534.1927	0.045684
534.8668	0.044945
535.5411	0.044080
536.2155	0.043088
536.8899	0.040512
537.5645	0.042370
538.2392	0.044523
538.9139	0.047520
539.5888	0.047478
540.2638	0.047204
540.9389	0.046000
541.6140	0.046655
542.2893	0.047795
542.9647	0.049441
543.6402	0.050159
544.3158	0.050665
544.9915	0.051087
545.6673	0.049926
546.3432	0.047056
547.0192	0.047710
547.6953	0.052523
548.3715	0.056280
549.0478	0.052523
549.7242	0.050243
550.4007	0.049378
551.0773	0.047415
551.7540	0.045304
552.4308	0.053852
553.1077	0.049568
553.7847	0.054507
554.4618	0.049800
555.1390	0.051636
555.8163	0.054570
556.4937	0.055541
557.1712	0.049124
557.8488	0.053388
558.5266	0.049547
559.2044	0.047795
559.8823	0.048027
560.5603	0.057610
561.2384	0.063879
561.9166	0.058707
562.5949	0.056364
563.2733	0.057103
563.9519	0.059847
564.6305	0.061156
565.3092	0.062507
565.9880	0.065736
566.6669	0.065124
567.3459	0.074876
568.0250	0.084733
568.7043	0.093957
569.3836	0.110168
570.0630	0.143433
570.7425	0.149660
571.4221	0.176910
572.1018	0.190207
572.7816	0.161881
573.4615	0.185311
574.1415	0.208888
574.8216	0.225162
575.5018	0.227040
576.1821	0.205236
576.8626	0.234111
577.5431	0.242069
578.2237	0.299481
578.9044	0.253003
579.5851	0.245868
580.2660	0.253298
580.9470	0.252390
581.6281	0.386297
582.3093	0.366984
582.9906	0.284368
583.6720	0.231072
584.3535	0.228560
585.0351	0.267292
585.7167	0.274152
586.3985	0.233710
587.0804	0.246523
587.7624	0.255662
588.4445	0.232634
589.1266	0.200761
589.8089	0.185923
590.4913	0.166673
591.1737	0.147908
591.8563	0.145966
592.5389	0.167939
593.2217	0.222565
593.9046	0.212159
594.5875	0.186661
595.2705	0.215811
595.9537	0.190207
596.6369	0.154557
597.3203	0.162451
598.0037	0.150736
598.6872	0.167517
599.3709	0.201036
600.0546	0.197046
600.7384	0.193606
601.4223	0.199094
602.1064	0.180435
602.7905	0.182651
603.4747	0.199030
604.1590	0.184382
604.8434	0.164308
605.5279	0.173385
606.2125	0.181574
606.8972	0.162725
607.5819	0.169860
608.2668	0.158567
608.9518	0.149976
609.6369	0.136531
610.3220	0.159010
611.0073	0.143623
611.6927	0.143644
612.3781	0.131761
613.0637	0.137903
613.7493	0.133892
614.4351	0.134758
615.1209	0.133491
615.8068	0.137523
616.4929	0.117977
617.1790	0.108458
617.8652	0.112046
618.5515	0.105566
619.2379	0.092374
619.9244	0.096173
620.6110	0.096258
621.2977	0.076839
621.9845	0.082116
622.6714	0.089904
623.3584	0.089187
624.0454	0.088828
624.7326	0.096426
625.4199	0.086485
626.1072	0.079730
626.7947	0.072934
627.4822	0.075340
628.1698	0.067952
628.8576	0.057483
629.5454	0.065588
630.2333	0.062359
630.9213	0.060438
631.6094	0.052586
632.2976	0.051615
632.9859	0.045916
633.6743	0.044987
634.3628	0.046866
635.0514	0.041209
635.7400	0.041990
636.4288	0.047035
637.1177	0.043425
637.8066	0.041695
638.4957	0.042919
639.1848	0.041061
639.8740	0.037317
640.5633	0.039519
641.2528	0.035672
641.9423	0.031636
642.6319	0.029965
643.3216	0.031270
644.0113	0.029331
644.7012	0.027793
645.3912	0.027798
646.0812	0.026660
646.7714	0.027028
647.4616	0.024309
648.1520	0.029363
648.8424	0.033654
649.5329	0.034909
650.2236	0.030325
650.9143	0.029136
651.6051	0.028199
652.2960	0.031884
652.9870	0.032887
653.6780	0.033775
654.3692	0.032829
655.0605	0.063362
655.7518	0.983222
656.4433	1.000000
657.1348	0.883513
657.8264	0.541285
658.5181	0.410886
659.2099	0.320663
659.9018	0.090881
660.5938	0.029816
661.2859	0.024101
661.9781	0.022680
662.6704	0.022363
663.3627	0.022130
664.0552	0.023697
664.7477	0.021585
665.4403	0.024133
666.1330	0.023041
666.8259	0.019418
667.5188	0.023625
668.2117	0.020463
668.9048	0.020587
669.5980	0.022444
670.2913	0.022824
670.9846	0.024998
671.6781	0.029621
672.3716	0.036502
673.0652	0.034919
673.7589	0.030339
674.4527	0.028249
675.1466	0.026244
675.8406	0.027046
676.5347	0.024112
677.2288	0.024407
677.9231	0.029853
678.6174	0.031014
679.3119	0.031774
680.0064	0.034919
680.7010	0.034455
681.3957	0.035806
682.0905	0.033821
682.7854	0.031690
683.4803	0.031225
684.1754	0.033505
684.8705	0.039035
685.5658	0.045198
686.2611	0.043067
686.9565	0.042961
687.6520	0.041716
688.3476	0.039330
689.0433	0.036122
689.7390	0.037431
690.4349	0.034961
691.1308	0.037895
691.8269	0.037283
692.5230	0.038908
693.2192	0.039753
693.9155	0.037811
694.6119	0.031668
695.3083	0.036122
696.0049	0.030043
696.7016	0.035046
697.3983	0.040449
698.0951	0.039288
698.7920	0.037621
699.4890	0.033906
700.1861	0.031120
700.8833	0.031099
701.5806	0.030170
702.2779	0.027236
702.9753	0.030149
703.6729	0.028460
704.3705	0.028270
705.0682	0.025315
705.7660	0.023204
706.4638	0.031120
707.1618	0.036840
707.8599	0.036988
708.5580	0.037283
709.2562	0.033125
709.9545	0.033906
710.6529	0.034497
711.3514	0.032724
712.0500	0.026814
712.7486	0.030465
713.4474	0.032872
714.1462	0.034476
714.8451	0.031647
715.5441	0.036291
716.2432	0.029938
716.9424	0.030064
717.6416	0.028946
718.3410	0.030339
719.0404	0.029093
719.7399	0.030022
720.4395	0.027426
721.1392	0.033315
721.8390	0.031563
722.5388	0.028207
723.2388	0.027299
723.9388	0.027911
724.6389	0.024492
725.3391	0.032048
726.0394	0.033294
726.7398	0.032850
727.4403	0.032091
728.1408	0.033568
728.8414	0.033188
729.5421	0.036608
730.2429	0.038592
730.9438	0.040639
731.6448	0.042370
732.3458	0.042053
733.0470	0.044016
733.7482	0.044797
734.4495	0.052945
735.1509	0.047499
735.8524	0.047077
736.5539	0.047605
737.2556	0.051066
737.9573	0.044270
738.6591	0.042349
739.3610	0.044903
740.0630	0.041610
740.7651	0.038507
741.4672	0.035088
742.1695	0.035151
742.8718	0.035806
743.5742	0.032597
744.2767	0.029769
744.9792	0.030444
745.6819	0.028460
746.3846	0.029199
747.0874	0.028038
747.7903	0.032302
748.4933	0.029389
749.1964	0.030909
749.8995	0.039246
750.6028	0.042011
751.3061	0.040829
752.0095	0.039162
752.7130	0.037304
753.4166	0.036755
754.1202	0.041209
754.8239	0.039563
755.5278	0.041040
756.2317	0.045726
756.9356	0.050306
757.6397	0.059573
758.3438	0.059214
759.0481	0.054021
759.7524	0.059678
760.4568	0.066813
761.1613	0.060396
761.8658	0.053050
762.5705	0.047436
763.2752	0.049335
763.9800	0.049821
764.6849	0.056132
765.3898	0.057652
766.0949	0.049631
766.8000	0.040956
767.5052	0.036164
768.2105	0.043299
768.9159	0.048576
769.6214	0.046064
770.3269	0.044185
771.0325	0.048491
771.7382	0.046233
772.4440	0.038993
773.1499	0.040428
773.8558	0.037853
774.5618	0.033716
775.2679	0.031077
775.9741	0.026392
776.6804	0.026581
777.3868	0.023289
778.0932	0.024787
778.7997	0.027679
779.5063	0.033378
780.2130	0.029389
780.9197	0.032112
781.6265	0.036544
782.3335	0.034771
783.0405	0.032808
783.7475	0.036755
784.4547	0.030486
785.1619	0.029558
785.8692	0.027552
786.5766	0.029663
787.2841	0.029959
787.9917	0.029473
788.6993	0.030803
789.4070	0.028523
790.1148	0.026434
790.8227	0.024154
791.5306	0.023352
792.2387	0.021621
792.9468	0.022191
793.6550	0.021917
794.3632	0.030824
795.0716	0.034370
795.7800	0.027215
796.4885	0.023922
797.1971	0.020840
797.9058	0.021685
798.6145	0.022951
799.3233	0.022803
800.0322	0.019637
800.7412	0.020080
801.4503	0.019890
802.1594	0.016576
802.8686	0.016513
803.5779	0.020123
804.2873	0.017210
804.9968	0.016809
805.7063	0.018244
806.4159	0.022951
807.1256	0.022064
807.8354	0.021157
808.5452	0.023563
809.2551	0.023331
809.9651	0.019152
810.6752	0.018751
811.3853	0.016956
812.0956	0.014825
812.8059	0.013643
813.5163	0.016112
814.2267	0.019025
814.9373	0.018751
815.6479	0.015627
816.3586	0.012672
817.0694	0.013009
817.7802	0.014529
818.4912	0.014424
819.2022	0.013009
819.9133	0.012883
820.6244	0.014001
821.3357	0.015268
822.0470	0.013263
822.7584	0.012904
823.4698	0.012397
824.1814	0.008851
824.8930	0.010350
825.6047	0.014044
826.3165	0.013579
827.0283	0.012545
827.7402	0.013537
828.4522	0.011595
829.1643	0.012798
829.8765	0.011342
830.5887	0.009780
831.3010	0.008197
832.0134	0.008830
832.7259	0.008323
833.4384	0.008535
834.1510	0.010983
834.8637	0.009505
835.5765	0.011827
836.2893	0.009104
837.0022	0.007711
837.7152	0.007268
838.4283	0.006382
839.1414	0.006065
839.8546	0.008281
840.5679	0.006804
841.2813	0.007901
841.9947	0.004566
842.7082	0.005917
843.4218	0.005221
844.1355	0.004946
844.8492	0.004545
845.5631	0.006424
846.2770	0.005558
846.9909	0.004081
847.7050	0.006107
848.4191	0.004102
849.1333	0.004313
849.8475	0.005474
850.5619	0.003363
851.2763	0.004608
851.9908	0.004714
852.7053	0.008007
853.4200	0.013537
854.1347	0.012925
854.8495	0.014402
855.5643	0.011827
856.2792	0.010899
856.9942	0.011067
857.7093	0.011194
858.4245	0.009906
859.1397	0.006909
859.8550	0.009231
860.5704	0.007205
861.2858	0.006614
862.0013	0.005326
862.7169	0.006403
863.4326	0.006783
864.1483	0.005980
864.8642	0.005537
865.5800	0.004693
866.2960	0.004271
867.0120	0.006023
867.7281	0.005685
868.4443	0.004841
869.1606	0.003701
869.8769	0.005453
870.5933	0.006086
871.3097	0.005601
872.0263	0.004756
872.7429	0.004608
873.4596	0.005221
874.1763	0.004841
874.8932	0.003743
875.6101	0.005136
876.3270	0.005769
877.0441	0.005326
877.7612	0.007479
878.4784	0.005980
879.1957	0.006571
879.9130	0.005896
880.6304	0.006973
881.3479	0.008155
882.0654	0.007648
882.7831	0.005115
883.5007	0.005516
884.2185	0.007205
884.9363	0.005917
885.6542	0.006445
886.3722	0.006086
887.0903	0.005537
887.8084	0.006023
888.5266	0.004207
889.2448	0.005136
889.9632	0.005221
890.6816	0.003258
891.4001	0.004292
892.1186	0.005368
892.8372	0.005453
893.5559	0.006593
894.2747	0.003258
894.9935	0.004967
895.7124	0.004313
896.4314	0.004207
897.1504	0.004123
897.8695	0.005495
898.5887	0.004081
899.3079	0.003616
900.0272	0.004482
900.7466	0.004841
901.4661	0.003279
902.1856	0.004123
902.9052	0.003680
903.6249	0.003047
904.3446	0.003933
905.0644	0.004419
905.7843	0.005221
906.5043	0.003870
907.2243	0.003194
907.9444	0.003870
908.6645	0.002350
909.3847	0.004524
910.1050	0.003236
910.8254	0.003806
911.5458	0.004229
912.2663	0.004735
912.9869	0.002688
913.7075	0.003131
914.4283	0.002392
915.1490	0.004081
915.8699	0.001822
916.5908	0.004482
917.3118	0.002983
918.0328	0.003532
918.7539	0.003490
919.4751	0.002814
920.1964	0.002772
920.9177	0.004735
921.6391	0.001928
922.3606	0.004081
923.0821	0.002688
923.8037	0.002793
924.5254	0.002561
925.2471	0.003363
925.9689	0.001590
926.6908	0.002139
927.4127	0.001210
928.1347	0.002540
928.8568	0.002202
929.5789	0.003490
930.3011	-0.000246
931.0234	0.002413
931.7457	0.001379
932.4681	0.002540
933.1906	0.001843
933.9131	0.001506
934.6358	0.002139
935.3584	0.001421
936.0812	0.002772
936.8040	0.001421
937.5269	0.001147
938.2498	0.000493
938.9728	0.002498
939.6959	0.001147
940.4190	0.000767
941.1422	0.000514
941.8655	0.001548
942.5889	0.000493
943.3123	0.000957
944.0357	-0.000647
944.7593	0.001548
945.4829	0.001485
946.2066	0.000809
946.9303	0.000260
947.6541	0.003004
948.3780	-0.000141
949.1019	0.002266
949.8259	-0.000331
950.5500	0.000408
951.2741	0.000408
951.9983	0.001379
952.7226	0.001548
953.4469	0.000345
954.1713	0.000746
954.8958	0.001696
955.6203	-0.000141
956.3449	0.000239
957.0696	0.000324
957.7943	0.001126
958.5191	0.000324
959.2439	0.000704
959.9688	0.000936
960.6938	0.001062
961.4189	0.000239
962.1440	0.000239
962.8692	0.000218
963.5944	-0.000035
964.3197	-0.000099
965.0451	0.002118
965.7705	0.000704
966.4960	0.000324
967.2216	0.000535
967.9472	0.000049
968.6729	-0.001386
969.3987	0.001231
970.1245	0.000070
970.8504	0.000661
971.5763	0.000872
972.3023	0.001485
973.0284	0.000007
973.7545	0.000619
974.4807	0.001210
975.2070	0.000514
975.9333	0.001548
976.6597	0.000049
977.3862	0.001843
978.1127	0.001147
978.8393	-0.000795
979.5659	0.000872
980.2926	0.001632
981.0194	0.000725
981.7462	-0.000267
982.4731	0.000091
983.2001	-0.000415
983.9271	-0.000500
984.6542	-0.000732
985.3814	0.001421
986.1086	0.000239
986.8358	0.000387
987.5632	-0.000858
988.2906	0.000872
989.0180	0.000324
989.7456	-0.000246
990.4732	0.000577
991.2008	0.000830
991.9285	-0.000310
992.6563	-0.000162
993.3841	0.000091
994.1120	0.000007
994.8400	0.000091
995.5680	-0.000225
996.2961	-0.001344
997.0242	0.000218
997.7524	0.000936
998.4807	-0.000500
999.2090	0.000007
999.9374	-0.001027
1000.67	0.000598
1001.39	-0.000267
1002.12	-0.000879
1002.85	-0.000056
1003.58	-0.001196
1004.31	-0.000753
1005.04	0.000535
1005.77	0.000788
1006.5	0.000070
1007.22	-0.000521
1007.95	-0.002040
1008.68	0.000767
1009.41	-0.000542
1010.14	0.000239
1010.87	0.001210
1011.6	0.000197
1012.33	0.000366
1013.06	-0.000225
1013.79	0.000450
1014.52	-0.001006
1015.25	-0.000394
1015.98	-0.000457
1016.71	-0.001428
1017.44	0.001590
1018.17	-0.001133
1018.9	-0.000985
1019.63	0.001126
1020.36	-0.000077
1021.09	-0.000162
1021.82	-0.001682
1022.55	-0.001196
1023.03	0.000007