File: Auto_Polymerization/Spectra/pure_compounds_spectra_test/DMSO+CTA_spectrum_2025-06-19_14-56-20.txt
# Wavelength (nm)	Intensity (a.u.)
197.7802	0.001242
198.3922	-0.000215
199.0044	0.001938
199.6168	0.001579
200.2292	0.000208
200.8418	0.000819
201.4546	0.001854
202.0674	-0.000109
202.6805	-0.000362
203.2936	0.000419
203.9069	0.001220
204.5203	0.000566
205.1338	0.001326
205.7475	0.001178
206.3614	0.000883
206.9753	-0.000341
207.5894	-0.001861
208.2036	-0.000679
208.8180	0.000250
209.4325	-0.001122
210.0471	0.001537
210.6618	-0.000953
211.2767	0.001389
211.8918	0.000587
212.5069	0.001094
213.1222	0.000651
213.7376	0.000334
214.3532	0.000144
214.9689	0.000545
215.5847	-0.000784
216.2007	0.000735
216.8168	-0.000742
217.4330	-0.000404
218.0494	-0.000193
218.6659	0.000292
219.2825	-0.000742
219.8992	-0.000004
220.5161	0.000165
221.1332	-0.000004
221.7503	0.000482
222.3676	0.000587
222.9850	0.000165
223.6026	0.000229
224.2203	0.000608
224.8381	0.000081
225.4561	0.001136
226.0742	0.001094
226.6924	0.000925
227.3107	0.001115
227.9292	0.000841
228.5478	0.001115
229.1666	0.000081
229.7855	-0.001016
230.4045	0.000144
231.0236	0.000292
231.6429	-0.000616
232.2623	0.001284
232.8818	-0.000046
233.5015	0.000482
234.1213	0.001980
234.7413	-0.000067
235.3613	0.001389
235.9815	0.000397
236.6018	0.000524
237.2223	-0.000109
237.8429	-0.000341
238.4636	0.001643
239.0845	0.000440
239.7055	0.001284
240.3266	0.000144
240.9478	-0.000383
241.5692	0.000545
242.1907	0.001115
242.8124	-0.000679
243.4341	0.000186
244.0560	-0.000531
244.6781	0.001790
245.3002	0.000271
245.9225	0.001495
246.5449	-0.001607
247.1675	0.001537
247.7902	0.000039
248.4130	0.000165
249.0359	-0.000362
249.6590	-0.000025
250.2822	0.000925
250.9056	0.000482
251.5290	0.001178
252.1526	0.001326
252.7763	-0.001016
253.4002	0.000208
254.0242	0.000714
254.6483	0.000334
255.2725	-0.000594
255.8969	0.000292
256.5214	0.001516
257.1460	0.000630
257.7708	-0.000531
258.3957	0.001178
259.0207	0.000144
259.6459	0.000102
260.2711	0.000419
260.8965	-0.000573
261.5221	0.001347
262.1477	0.001009
262.7735	0.000904
263.3995	0.000735
264.0255	0.000819
264.6517	-0.000510
265.2780	-0.000236
265.9044	0.001474
266.5310	-0.000320
267.1577	0.001094
267.7845	0.000482
268.4114	0.001495
269.0385	0.000018
269.6657	0.000925
270.2931	-0.000362
270.9205	0.000081
271.5481	0.000039
272.1758	-0.000932
272.8037	-0.000067
273.4316	0.001558
274.0597	0.001115
274.6880	0.000630
275.3163	-0.001059
275.9448	0.000904
276.5734	0.000186
277.2022	0.000229
277.8310	0.000735
278.4600	0.000651
279.0891	-0.000320
279.7184	-0.000658
280.3477	-0.000088
280.9772	0.000819
281.6069	-0.000299
282.2366	0.000608
282.8665	0.000208
283.4965	0.001178
284.1266	0.001052
284.7569	0.001389
285.3873	0.000461
286.0178	0.001811
286.6484	0.000229
287.2792	-0.000426
287.9101	0.001389
288.5411	0.001326
289.1723	0.000313
289.8035	0.000735
290.4349	-0.000679
291.0665	0.000693
291.6981	-0.001143
292.3299	0.000735
292.9618	0.001220
293.5938	-0.000215
294.2260	0.000461
294.8582	0.001347
295.4906	0.000250
296.1232	0.000186
296.7558	-0.000404
297.3886	0.000608
298.0215	-0.000172
298.6545	-0.000447
299.2877	0.000081
299.9210	0.000503
300.5544	-0.000046
301.1879	0.000925
301.8215	0.001579
302.4553	0.000419
303.0892	0.000545
303.7233	-0.000004
304.3574	-0.000531
304.9917	0.001474
305.6261	0.000587
306.2606	0.000144
306.8953	0.000440
307.5301	0.000440
308.1650	-0.000193
308.8000	-0.000046
309.4351	-0.000278
310.0704	-0.000109
310.7058	0.001811
311.3413	0.000229
311.9770	0.000250
312.6127	0.000186
313.2486	0.000841
313.8846	-0.000468
314.5208	0.000651
315.1570	0.000250
315.7934	-0.000805
316.4299	0.001220
317.0666	0.000524
317.7033	0.001431
318.3402	0.001643
318.9772	0.000419
319.6143	0.000735
320.2516	0.000904
320.8890	-0.000067
321.5265	0.000503
322.1641	0.000165
322.8018	0.000313
323.4397	-0.000236
324.0777	-0.000679
324.7158	0.000904
325.3540	0.000123
325.9924	0.000229
326.6308	0.000756
327.2694	-0.000932
327.9082	-0.000784
328.5470	0.000313
329.1860	0.000841
329.8251	-0.000067
330.4643	0.001220
331.1036	0.001052
331.7431	0.002170
332.3826	0.000440
333.0223	0.000397
333.6622	-0.000088
334.3021	0.001431
334.9422	0.000735
335.5823	0.000608
336.2227	0.000186
336.8631	0.000461
337.5036	-0.000616
338.1443	0.001368
338.7851	0.000102
339.4260	0.000841
340.0670	0.000229
340.7082	-0.000362
341.3495	-0.000468
341.9909	0.000334
342.6324	-0.000404
343.2740	0.000081
343.9158	-0.000869
344.5577	-0.000341
345.1997	0.000081
345.8418	0.000735
346.4840	0.000165
347.1264	-0.000109
347.7689	-0.000257
348.4115	0.001748
349.0542	-0.000088
349.6971	0.000165
350.3400	-0.000004
350.9831	-0.000404
351.6263	0.000186
352.2696	0.000798
352.9131	0.000355
353.5566	0.001474
354.2003	0.000630
354.8441	0.000018
355.4881	-0.000151
356.1321	0.000355
356.7763	-0.000700
357.4206	0.000334
358.0650	0.000608
358.7095	0.000144
359.3541	-0.000236
359.9989	-0.000383
360.6438	0.001009
361.2888	0.000503
361.9339	-0.000236
362.5791	0.000355
363.2245	0.000334
363.8699	0.001643
364.5155	-0.000320
365.1612	-0.000172
365.8071	0.000693
366.4530	-0.000362
367.0991	0.001643
367.7453	-0.000278
368.3916	-0.001185
369.0380	0.000018
369.6845	0.000587
370.3312	0.000672
370.9780	-0.000130
371.6249	0.001410
372.2719	-0.000004
372.9190	0.000904
373.5663	0.000461
374.2136	0.001242
374.8611	0.000862
375.5087	0.002318
376.1564	0.001305
376.8043	0.003120
377.4522	0.002508
378.1003	0.003331
378.7485	0.004006
379.3968	0.004217
380.0452	0.005040
380.6938	0.004766
381.3424	0.006517
381.9912	0.006960
382.6401	0.006918
383.2891	0.007994
383.9382	0.009493
384.5875	0.010675
385.2368	0.009007
385.8863	0.010843
386.5359	0.012764
387.1856	0.013291
387.8355	0.015992
388.4854	0.016710
389.1355	0.015528
389.7856	0.017069
390.4359	0.015824
391.0863	0.018440
391.7369	0.018166
392.3875	0.021247
393.0383	0.023104
393.6891	0.021395
394.3401	0.021585
394.9912	0.025025
395.6425	0.022176
396.2938	0.023125
396.9453	0.023927
397.5968	0.027451
398.2485	0.028802
398.9003	0.028950
399.5522	0.028844
400.2043	0.027114
400.8564	0.028739
401.5087	0.029942
402.1610	0.028485
402.8135	0.026818
403.4661	0.029984
404.1189	0.030469
404.7717	0.030005
405.4246	0.030786
406.0777	0.032094
406.7309	0.030553
407.3842	0.029287
408.0376	0.028443
408.6911	0.031398
409.3448	0.030427
409.9985	0.031714
410.6524	0.029583
411.3064	0.031229
411.9605	0.031925
412.6147	0.031102
413.2690	0.033023
413.9234	0.033930
414.5780	0.032242
415.2326	0.031862
415.8874	0.030807
416.5423	0.034289
417.1973	0.032242
417.8524	0.031461
418.5077	0.032706
419.1630	0.033297
419.8185	0.032917
420.4741	0.036251
421.1298	0.038404
421.7856	0.040831
422.4415	0.037876
423.0975	0.042245
423.7536	0.038383
424.4099	0.038699
425.0663	0.038910
425.7228	0.038277
426.3793	0.033677
427.0361	0.033023
427.6929	0.037412
428.3498	0.035386
429.0068	0.036568
429.6640	0.041506
430.3213	0.041274
430.9787	0.041970
431.6362	0.037707
432.2938	0.033782
432.9515	0.033677
433.6093	0.040788
434.2673	0.039965
434.9253	0.038319
435.5835	0.036104
436.2418	0.036863
436.9001	0.040324
437.5586	0.036652
438.2173	0.038530
438.8760	0.037750
439.5348	0.039797
440.1938	0.038847
440.8528	0.039438
441.5120	0.046212
442.1713	0.048871
442.8307	0.044735
443.4902	0.044608
444.1498	0.045748
444.8095	0.046275
445.4694	0.044587
446.1293	0.045473
446.7894	0.046212
447.4496	0.041485
448.1098	0.041696
448.7702	0.039670
449.4307	0.041084
450.0914	0.040598
450.7521	0.039881
451.4129	0.038889
452.0739	0.039860
452.7349	0.036927
453.3961	0.036652
454.0574	0.034647
454.7188	0.034310
455.3803	0.037201
456.0419	0.036251
456.7036	0.034647
457.3654	0.036568
458.0274	0.037285
458.6894	0.040261
459.3516	0.037032
460.0138	0.038657
460.6762	0.034732
461.3387	0.035449
462.0013	0.034394
462.6640	0.032896
463.3268	0.032284
463.9897	0.036251
464.6528	0.035344
465.3159	0.036969
465.9792	0.039923
466.6425	0.030933
467.3060	0.030047
467.9696	0.028211
468.6333	0.029920
469.2970	0.029477
469.9610	0.025404
470.6250	0.024856
471.2891	0.025151
471.9533	0.023505
472.6177	0.027430
473.2821	0.027747
473.9467	0.027409
474.6113	0.023315
475.2761	0.027789
475.9410	0.024497
476.6060	0.025404
477.2711	0.024349
477.9363	0.025320
478.6016	0.024898
479.2670	0.023948
479.9325	0.024054
480.5982	0.026903
481.2639	0.025615
481.9298	0.025573
482.5957	0.024982
483.2618	0.024792
483.9280	0.022619
484.5943	0.026882
485.2606	0.026755
485.9271	0.082066
486.5937	0.054083
487.2605	0.043236
487.9273	0.025214
488.5942	0.021458
489.2612	0.022492
489.9284	0.021880
490.5956	0.020741
491.2630	0.021500
491.9304	0.018862
492.5980	0.018862
493.2657	0.020129
493.9334	0.019453
494.6013	0.017913
495.2693	0.017195
495.9374	0.015971
496.6056	0.020445
497.2739	0.017406
497.9423	0.017174
498.6109	0.017406
499.2795	0.018208
499.9482	0.019052
500.6171	0.017090
501.2860	0.016583
501.9551	0.017322
502.6242	0.016689
503.2935	0.018651
503.9628	0.015760
504.6323	0.015233
505.3019	0.016689
505.9716	0.015570
506.6414	0.015676
507.3113	0.013481
507.9813	0.015486
508.6514	0.015760
509.3216	0.012996
509.9919	0.013165
510.6623	0.013080
511.3329	0.012426
512.0035	0.013186
512.6742	0.011561
513.3451	0.014030
514.0160	0.013671
514.6871	0.014895
515.3582	0.011561
516.0295	0.012278
516.7008	0.012827
517.3723	0.010759
518.0439	0.011856
518.7155	0.010843
519.3873	0.012679
520.0592	0.011033
520.7312	0.010231
521.4033	0.010653
522.0755	0.011160
522.7478	0.011097
523.4202	0.010970
524.0927	0.009852
524.7653	0.011012
525.4380	0.011540
526.1108	0.009493
526.7837	0.012004
527.4568	0.013291
528.1299	0.011983
528.8031	0.014325
529.4765	0.013713
530.1499	0.012954
530.8234	0.013523
531.4971	0.013713
532.1708	0.012933
532.8447	0.013946
533.5186	0.016668
534.1927	0.016921
534.8668	0.017702
535.5411	0.018609
536.2155	0.016794
536.8899	0.016457
537.5645	0.017786
538.2392	0.018293
538.9139	0.018588
539.5888	0.020931
540.2638	0.018272
540.9389	0.019474
541.6140	0.019074
542.2893	0.022767
542.9647	0.022302
543.6402	0.022260
544.3158	0.025214
544.9915	0.026375
545.6673	0.024497
546.3432	0.023273
547.0192	0.024687
547.6953	0.026797
548.3715	0.032769
549.0478	0.028063
549.7242	0.026903
550.4007	0.026164
551.0773	0.027726
551.7540	0.026649
552.4308	0.033023
553.1077	0.030321
553.7847	0.032537
554.4618	0.029330
555.1390	0.030954
555.8163	0.032326
556.4937	0.034394
557.1712	0.033128
557.8488	0.035555
558.5266	0.031461
559.2044	0.030448
559.8823	0.034162
560.5603	0.038319
561.2384	0.039121
561.9166	0.040556
562.5949	0.038404
563.2733	0.039037
563.9519	0.042941
564.6305	0.045769
565.3092	0.044671
565.9880	0.045790
566.6669	0.047921
567.3459	0.057840
568.0250	0.064592
568.7043	0.073034
569.3836	0.088164
570.0630	0.111800
570.7425	0.115007
571.4221	0.137419
572.1018	0.149574
572.7816	0.131151
573.4615	0.146873
574.1415	0.172260
574.8216	0.184119
575.5018	0.183803
576.1821	0.166773
576.8626	0.191632
577.5431	0.206024
578.2237	0.251881
578.9044	0.208451
579.5851	0.208641
580.2660	0.211511
580.9470	0.211363
581.6281	0.333211
582.3093	0.310378
582.9906	0.245824
583.6720	0.197161
584.3535	0.195198
585.0351	0.229512
585.7167	0.240907
586.3985	0.203471
587.0804	0.215879
587.7624	0.229153
588.4445	0.199799
589.1266	0.172872
589.8089	0.166984
590.4913	0.146535
591.1737	0.129695
591.8563	0.128788
592.5389	0.151832
593.2217	0.203112
593.9046	0.191273
594.5875	0.173294
595.2705	0.193721
595.9537	0.171331
596.6369	0.140310
597.3203	0.147696
598.0037	0.140035
598.6872	0.152402
599.3709	0.176944
600.0546	0.178063
600.7384	0.175953
601.4223	0.178886
602.1064	0.162025
602.7905	0.166351
603.4747	0.180891
604.1590	0.165802
604.8434	0.153963
605.5279	0.157551
606.2125	0.168904
606.8972	0.149785
607.5819	0.154702
608.2668	0.143792
608.9518	0.137081
609.6369	0.128577
610.3220	0.147569
611.0073	0.133599
611.6927	0.132881
612.3781	0.125707
613.0637	0.126698
613.7493	0.125369
614.4351	0.125664
615.1209	0.121507
615.8068	0.127500
616.4929	0.113066
617.1790	0.106988
617.8652	0.105954
618.5515	0.096648
619.2379	0.085632
619.9244	0.090591
620.6110	0.090338
621.2977	0.070733
621.9845	0.079217
622.6714	0.081665
623.3584	0.085126
624.0454	0.082298
624.7326	0.087278
625.4199	0.078162
626.1072	0.073688
626.7947	0.067062
627.4822	0.070966
628.1698	0.060182
628.8576	0.055919
629.5454	0.061153
630.2333	0.057038
630.9213	0.053999
631.6094	0.050369
632.2976	0.050812
632.9859	0.043342
633.6743	0.043173
634.3628	0.040767
635.0514	0.039986
635.7400	0.038868
636.4288	0.046360
637.1177	0.041295
637.8066	0.037517
638.4957	0.040810
639.1848	0.040198
639.8740	0.036490
640.5633	0.034777
641.2528	0.033793
641.9423	0.031533
642.6319	0.029485
643.3216	0.027561
644.0113	0.027754
644.7012	0.024429
645.3912	0.028430
646.0812	0.024482
646.7714	0.022746
647.4616	0.021075
648.1520	0.028533
648.8424	0.030150
649.5329	0.032066
650.2236	0.029067
650.9143	0.029204
651.6051	0.026827
652.2960	0.030746
652.9870	0.029886
653.6780	0.031249
654.3692	0.031393
655.0605	0.061909
655.7518	0.939074
656.4433	1.000000
657.1348	0.822301
657.8264	0.498772
658.5181	0.373702
659.2099	0.295475
659.9018	0.078249
660.5938	0.028302
661.2859	0.023007
661.9781	0.020125
662.6704	0.019631
663.3627	0.020891
664.0552	0.019727
664.7477	0.021108
665.4403	0.022742
666.1330	0.021997
666.8259	0.019908
667.5188	0.020995
668.2117	0.019799
668.9048	0.020804
669.5980	0.020129
670.2913	0.019432
670.9846	0.021838
671.6781	0.026818
672.3716	0.032031
673.0652	0.030828
673.7589	0.027409
674.4527	0.026375
675.1466	0.024180
675.8406	0.024349
676.5347	0.022914
677.2288	0.021648
677.9231	0.026164
678.6174	0.027852
679.3119	0.030406
680.0064	0.033677
680.7010	0.034479
681.3957	0.034479
682.0905	0.029266
682.7854	0.029182
683.4803	0.029688
684.1754	0.030490
684.8705	0.036631
685.5658	0.043511
686.2611	0.040725
686.9565	0.041189
687.6520	0.040936
688.3476	0.036927
689.0433	0.034563
689.7390	0.034626
690.4349	0.031355
691.1308	0.034563
691.8269	0.035407
692.5230	0.037792
693.2192	0.038826
693.9155	0.034373
694.6119	0.031524
695.3083	0.033677
696.0049	0.028106
696.7016	0.032453
697.3983	0.036315
698.0951	0.036019
698.7920	0.035428
699.4890	0.033149
700.1861	0.030131
700.8833	0.030216
701.5806	0.024750
702.2779	0.027472
702.9753	0.028675
703.6729	0.028021
704.3705	0.026882
705.0682	0.021416
705.7660	0.020741
706.4638	0.028443
707.1618	0.033044
707.8599	0.036568
708.5580	0.036040
709.2562	0.030786
709.9545	0.031609
710.6529	0.033001
711.3514	0.030068
712.0500	0.027261
712.7486	0.029203
713.4474	0.028760
714.1462	0.034964
714.8451	0.032938
715.5441	0.034078
716.2432	0.026396
716.9424	0.025151
717.6416	0.025531
718.3410	0.027367
719.0404	0.028971
719.7399	0.027979
720.4395	0.028063
721.1392	0.029034
721.8390	0.029942
722.5388	0.027008
723.2388	0.026059
723.9388	0.028000
724.6389	0.027283
725.3391	0.031144
726.0394	0.031440
726.7398	0.031524
727.4403	0.029646
728.1408	0.033128
728.8414	0.032368
729.5421	0.035048
730.2429	0.034584
730.9438	0.040008
731.6448	0.040472
732.3458	0.037433
733.0470	0.040008
733.7482	0.042688
734.4495	0.047984
735.1509	0.045537
735.8524	0.047183
736.5539	0.046655
737.2556	0.047204
737.9573	0.040472
738.6591	0.039586
739.3610	0.044270
740.0630	0.041400
740.7651	0.035956
741.4672	0.034141
742.1695	0.030427
742.8718	0.033044
743.5742	0.029161
744.2767	0.024687
744.9792	0.027515
745.6819	0.027261
746.3846	0.026122
747.0874	0.025995
747.7903	0.029456
748.4933	0.026818
749.1964	0.027873
749.8995	0.034647
750.6028	0.040303
751.3061	0.036272
752.0095	0.040345
752.7130	0.036673
753.4166	0.036188
754.1202	0.041400
754.8239	0.037897
755.5278	0.039269
756.2317	0.041527
756.9356	0.046592
757.6397	0.058008
758.3438	0.052775
759.0481	0.049398
759.7524	0.057228
760.4568	0.060815
761.1613	0.058135
761.8658	0.048786
762.5705	0.046254
763.2752	0.049187
763.9800	0.046972
764.6849	0.053513
765.3898	0.054336
766.0949	0.046360
766.8000	0.038995
767.5052	0.034690
768.2105	0.040556
768.9159	0.046338
769.6214	0.045410
770.3269	0.041147
771.0325	0.048196
771.7382	0.042856
772.4440	0.038425
773.1499	0.037116
773.8558	0.036420
774.5618	0.031039
775.2679	0.029773
775.9741	0.025552
776.6804	0.023526
777.3868	0.022703
778.0932	0.024075
778.7997	0.027472
779.5063	0.028443
780.2130	0.024602
780.9197	0.029013
781.6265	0.034605
782.3335	0.034225
783.0405	0.032664
783.7475	0.032917
784.4547	0.029583
785.1619	0.028317
785.8692	0.026523
786.5766	0.027029
787.2841	0.026945
787.9917	0.029604
788.6993	0.028886
789.4070	0.028190
790.1148	0.023505
790.8227	0.024645
791.5306	0.022598
792.2387	0.021901
792.9468	0.019052
793.6550	0.021901
794.3632	0.030469
795.0716	0.029709
795.7800	0.026903
796.4885	0.021690
797.1971	0.021015
797.9058	0.023463
798.6145	0.022408
799.3233	0.021796
800.0322	0.017681
800.7412	0.017554
801.4503	0.018483
802.1594	0.016246
802.8686	0.015338
803.5779	0.017976
804.2873	0.015359
804.9968	0.016773
805.7063	0.016752
806.4159	0.021775
807.1256	0.021690
807.8354	0.019496
808.5452	0.020867
809.2551	0.019263
809.9651	0.019285
810.6752	0.020129
811.3853	0.016942
812.0956	0.015275
812.8059	0.012911
813.5163	0.014452
814.2267	0.018335
814.9373	0.017385
815.6479	0.014600
816.3586	0.012489
817.0694	0.013523
817.7802	0.014557
818.4912	0.012025
819.2022	0.009261
819.9133	0.012321
820.6244	0.014536
821.3357	0.016035
822.0470	0.011941
822.7584	0.011097
823.4698	0.010295
824.1814	0.010801
824.8930	0.010548
825.6047	0.013017
826.3165	0.011392
827.0283	0.011265
827.7402	0.012110
828.4522	0.011350
829.1643	0.011519
829.8765	0.012595
830.5887	0.008649
831.3010	0.008628
832.0134	0.006897
832.7259	0.008353
833.4384	0.008269
834.1510	0.009451
834.8637	0.010822
835.5765	0.008839
836.2893	0.008374
837.0022	0.006792
837.7152	0.004956
838.4283	0.006855
839.1414	0.005715
839.8546	0.008037
840.5679	0.006876
841.2813	0.005863
841.9947	0.005061
842.7082	0.005589
843.4218	0.003753
844.1355	0.006285
844.8492	0.004977
845.5631	0.006454
846.2770	0.004597
846.9909	0.004006
847.7050	0.005905
848.4191	0.004787
849.1333	0.003394
849.8475	0.004407
850.5619	0.004745
851.2763	0.005167
851.9908	0.005293
852.7053	0.008395
853.4200	0.014009
854.1347	0.015127
854.8495	0.012616
855.5643	0.011244
856.2792	0.011223
856.9942	0.012321
857.7093	0.007657
858.4245	0.010611
859.1397	0.008965
859.8550	0.008417
860.5704	0.006876
861.2858	0.007826
862.0013	0.005990
862.7169	0.005821
863.4326	0.006011
864.1483	0.006116
864.8642	0.004407
865.5800	0.006159
866.2960	0.003563
867.0120	0.005420
867.7281	0.004702
868.4443	0.004513
869.1606	0.004090
869.8769	0.005188
870.5933	0.003922
871.3097	0.005504
872.0263	0.005061
872.7429	0.004660
873.4596	0.003943
874.1763	0.004829
874.8932	0.004892
875.6101	0.006327
876.3270	0.005990
877.0441	0.003331
877.7612	0.005694
878.4784	0.007150
879.1957	0.007277
879.9130	0.007678
880.6304	0.007910
881.3479	0.006686
882.0654	0.006285
882.7831	0.005230
883.5007	0.006897
884.2185	0.005399
884.9363	0.004681
885.6542	0.005969
886.3722	0.005842
887.0903	0.005272
887.8084	0.004724
888.5266	0.002740
889.2448	0.004470
889.9632	0.003753
890.6816	0.004660
891.4001	0.004365
892.1186	0.005209
892.8372	0.003478
893.5559	0.004745
894.2747	0.003774
894.9935	0.003521
895.7124	0.003267
896.4314	0.004090
897.1504	0.004196
897.8695	0.005019
898.5887	0.004365
899.3079	0.004470
900.0272	0.002508
900.7466	0.005610
901.4661	0.004724
902.1856	0.004576
902.9052	0.003267
903.6249	0.003373
904.3446	0.004259
905.0644	0.005314
905.7843	0.004724
906.5043	0.005061
907.2243	0.003162
907.9444	0.003162
908.6645	0.003056
909.3847	0.003394
910.1050	0.003584
910.8254	0.003563
911.5458	0.003542
912.2663	0.003816
912.9869	0.003415
913.7075	0.003267
914.4283	0.002698
915.1490	0.002951
915.8699	0.003267
916.5908	0.003120
917.3118	0.003478
918.0328	0.001664
918.7539	0.001389
919.4751	0.004301
920.1964	0.004323
920.9177	0.002698
921.6391	0.002170
922.3606	0.002782
923.0821	0.003879
923.8037	0.003858
924.5254	0.002128
925.2471	0.002930
925.9689	0.002339
926.6908	0.002571
927.4127	0.001621
928.1347	0.002444
928.8568	0.003373
929.5789	0.002318
930.3011	0.002719
931.0234	0.002001
931.7457	0.002022
932.4681	0.001811
933.1906	0.001643
933.9131	0.002719
934.6358	0.002803
935.3584	0.002001
936.0812	0.002529
936.8040	0.003331
937.5269	0.001811
938.2498	0.001558
938.9728	0.001537
939.6959	0.000693
940.4190	0.002086
941.1422	0.001347
941.8655	0.002529
942.5889	0.001326
943.3123	0.002487
944.0357	0.000862
944.7593	0.000883
945.4829	0.001199
946.2066	0.000672
946.9303	0.001220
947.6541	0.000376
948.3780	0.001220
949.1019	0.002107
949.8259	0.001073
950.5500	0.002444
951.2741	0.000862
951.9983	0.001073
952.7226	0.002128
953.4469	0.001579
954.1713	0.002149
954.8958	0.001052
955.6203	0.000165
956.3449	0.001305
957.0696	-0.000109
957.7943	0.000271
958.5191	0.000208
959.2439	0.001748
959.9688	0.001305
960.6938	-0.000257
961.4189	0.001284
962.1440	-0.000004
962.8692	0.000060
963.5944	0.002444
964.3197	0.000039
965.0451	0.001410
965.7705	0.000419
966.4960	0.000904
967.2216	-0.000341
967.9472	0.000841
968.6729	0.000397
969.3987	0.001917
970.1245	0.000566
970.8504	0.001136
971.5763	0.000208
972.3023	0.001178
973.0284	0.000419
973.7545	0.001263
974.4807	0.000060
975.2070	0.001600
975.9333	0.002254
976.6597	-0.000004
977.3862	0.000250
978.1127	0.001558
978.8393	-0.000510
979.5659	0.001326
980.2926	0.000123
981.0194	0.000714
981.7462	0.001220
982.4731	0.000250
983.2001	0.000503
983.9271	-0.000151
984.6542	0.001368
985.3814	0.000693
986.1086	-0.002536
986.8358	0.001474
987.5632	-0.000130
988.2906	-0.000890
989.0180	0.001938
989.7456	-0.000404
990.4732	0.001664
991.2008	-0.000025
991.9285	0.001242
992.6563	0.001516
993.3841	0.000144
994.1120	0.000018
994.8400	-0.000953
995.5680	-0.000531
996.2961	-0.000953
997.0242	-0.000658
997.7524	-0.000299
998.4807	0.001220
999.2090	-0.001333
999.9374	-0.000257
1000.67	0.001537
1001.39	-0.000193
1002.12	-0.000067
1002.85	-0.000130
1003.58	0.000186
1004.31	-0.000784
1005.04	0.000419
1005.77	0.000334
1006.5	0.001220
1007.22	0.000039
1007.95	0.001558
1008.68	-0.001227
1009.41	-0.000658
1010.14	-0.000320
1010.87	0.000208
1011.6	0.000798
1012.33	0.000186
1013.06	0.000229
1013.79	-0.000784
1014.52	0.001178
1015.25	0.000608
1015.98	0.000271
1016.71	-0.000236
1017.44	0.000566
1018.17	0.001073
1018.9	-0.000278
1019.63	0.001410
1020.36	-0.000088
1021.09	-0.000383
1021.82	-0.000742
1022.55	-0.000552
1023.03	0.001136