File: Auto_Polymerization/Spectra/pure_compounds_spectra_test/DMSO+AIBN_spectrum_2025-06-19_14-43-10.txt
# Wavelength (nm)	Intensity (a.u.)
197.7802	0.000582
198.3922	0.000118
199.0044	0.001342
199.6168	0.000941
200.2292	0.001004
200.8418	-0.000558
201.4546	0.000160
202.0674	0.000118
202.6805	0.000055
203.2936	0.000055
203.9069	0.000983
204.5203	-0.001212
205.1338	0.001954
205.7475	-0.000853
206.3614	0.001447
206.9753	-0.000135
207.5894	-0.000135
208.2036	0.001363
208.8180	-0.000283
209.4325	0.000561
210.0471	0.001954
210.6618	-0.000790
211.2767	0.000308
211.8918	0.001025
212.5069	-0.001085
213.1222	-0.000283
213.7376	-0.000030
214.3532	-0.000135
214.9689	0.000223
215.5847	-0.000410
216.2007	0.000012
216.8168	0.000519
217.4330	0.000730
218.0494	-0.001106
218.6659	0.000941
219.2825	-0.000790
219.8992	0.000329
220.5161	0.000582
221.1332	0.000329
221.7503	0.001173
222.3676	-0.000473
222.9850	0.001975
223.6026	-0.000346
224.2203	0.000477
224.8381	-0.000093
225.4561	0.000308
226.0742	0.001490
226.6924	-0.000178
227.3107	0.000667
227.9292	0.001384
228.5478	-0.000241
229.1666	0.000793
229.7855	0.000202
230.4045	-0.000199
231.0236	-0.000346
231.6429	0.000244
232.2623	0.000266
232.8818	-0.000536
233.5015	-0.000220
234.1213	-0.000536
234.7413	0.001173
235.3613	0.000139
235.9815	0.000202
236.6018	0.000139
237.2223	-0.000663
237.8429	0.000266
238.4636	0.001827
239.0845	0.001004
239.7055	0.001131
240.3266	0.000540
240.9478	0.000920
241.5692	-0.000199
242.1907	0.002017
242.8124	-0.000304
243.4341	0.000434
244.0560	-0.000916
244.6781	-0.000642
245.3002	-0.000241
245.9225	0.000033
246.5449	0.000329
247.1675	-0.001254
247.7902	-0.000051
248.4130	0.001004
249.0359	0.000012
249.6590	0.000350
250.2822	-0.000853
250.9056	0.001616
251.5290	-0.000621
252.1526	-0.000030
252.7763	0.000540
253.4002	-0.000368
254.0242	0.000941
254.6483	-0.000220
255.2725	-0.000431
255.8969	0.000814
256.5214	0.000477
257.1460	0.001215
257.7708	0.001257
258.3957	0.000055
259.0207	0.000097
259.6459	0.001321
260.2711	-0.000135
260.8965	0.000160
261.5221	-0.000178
262.1477	0.001912
262.7735	0.001194
263.3995	0.000371
264.0255	0.000498
264.6517	0.000540
265.2780	-0.000325
265.9044	0.001300
266.5310	0.001089
267.1577	0.000244
267.7845	0.000329
268.4114	0.000371
269.0385	0.000835
269.6657	0.001891
270.2931	-0.000705
270.9205	-0.000030
271.5481	0.000097
272.1758	0.001405
272.8037	-0.001001
273.4316	-0.000030
274.0597	-0.000157
274.6880	0.000434
275.3163	-0.000262
275.9448	0.000329
276.5734	0.000181
277.2022	-0.000663
277.8310	-0.000621
278.4600	0.000730
279.0891	0.000561
279.7184	0.000181
280.3477	-0.000410
280.9772	0.000920
281.6069	0.000308
282.2366	0.001110
282.8665	-0.000579
283.4965	0.000793
284.1266	-0.000304
284.7569	-0.000072
285.3873	0.000477
286.0178	-0.000072
286.6484	0.000350
287.2792	-0.000410
287.9101	-0.000811
288.5411	0.000181
289.1723	-0.000030
289.8035	0.000498
290.4349	0.000561
291.0665	0.001046
291.6981	0.000477
292.3299	-0.000093
292.9618	0.000012
293.5938	0.000645
294.2260	0.000223
294.8582	0.000519
295.4906	-0.000410
296.1232	0.000645
296.7558	0.001848
297.3886	-0.000114
298.0215	0.000519
298.6545	0.000519
299.2877	-0.000579
299.9210	-0.000072
300.5544	0.000329
301.1879	0.001511
301.8215	0.000582
302.4553	0.001025
303.0892	0.000899
303.7233	0.001279
304.3574	0.000350
304.9917	0.000941
305.6261	-0.000199
306.2606	0.000076
306.8953	-0.000093
307.5301	-0.000368
308.1650	-0.001233
308.8000	0.000266
309.4351	-0.000114
310.0704	-0.000030
310.7058	-0.000811
311.3413	0.001004
311.9770	0.000371
312.6127	0.001722
313.2486	0.000603
313.8846	0.001658
314.5208	0.001300
315.1570	0.001806
315.7934	0.000751
316.4299	0.000983
317.0666	0.000181
317.7033	0.000899
318.3402	0.000582
318.9772	0.001236
319.6143	-0.000030
320.2516	0.001722
320.8890	-0.000811
321.5265	0.001975
322.1641	0.001553
322.8018	0.000856
323.4397	0.000688
324.0777	0.001152
324.7158	0.000899
325.3540	0.001447
325.9924	0.001912
326.6308	0.002545
327.2694	0.000941
327.9082	0.002460
328.5470	0.000624
329.1860	0.002249
329.8251	0.002102
330.4643	0.001574
331.1036	0.002270
331.7431	0.001363
332.3826	0.000434
333.0223	0.002081
333.6622	0.001363
334.3021	0.001342
334.9422	0.002967
335.5823	0.001933
336.2227	0.002081
336.8631	0.002460
337.5036	0.003072
338.1443	0.002038
338.7851	0.002397
339.4260	0.002292
340.0670	0.002313
340.7082	0.002313
341.3495	0.002081
341.9909	0.002313
342.6324	0.002650
343.2740	0.002798
343.9158	0.002608
344.5577	0.001996
345.1997	0.003368
345.8418	0.003431
346.4840	0.002693
347.1264	0.004085
347.7689	0.002228
348.4115	0.004824
349.0542	0.004191
349.6971	0.004444
350.3400	0.004550
350.9831	0.004001
351.6263	0.003980
352.2696	0.003706
352.9131	0.003917
353.5566	0.003537
354.2003	0.004803
354.8441	0.004191
355.4881	0.005858
356.1321	0.005225
356.7763	0.004508
357.4206	0.005056
358.0650	0.005985
358.7095	0.005816
359.3541	0.005478
359.9989	0.006111
360.6438	0.005457
361.2888	0.007146
361.9339	0.005985
362.5791	0.005985
363.2245	0.005795
363.8699	0.005246
364.5155	0.006090
365.1612	0.008074
365.8071	0.005795
366.4530	0.007884
367.0991	0.007969
367.7453	0.008032
368.3916	0.006386
369.0380	0.008053
369.6845	0.007948
370.3312	0.009931
370.9780	0.006470
371.6249	0.009214
372.2719	0.009172
372.9190	0.009108
373.5663	0.009108
374.2136	0.011008
374.8611	0.010965
375.5087	0.012696
376.1564	0.010965
376.8043	0.011873
377.4522	0.013646
378.1003	0.014321
378.7485	0.015018
379.3968	0.015798
380.0452	0.015271
380.6938	0.016917
381.3424	0.015545
381.9912	0.016453
382.6401	0.018078
383.2891	0.019091
383.9382	0.020272
384.5875	0.019682
385.2368	0.017381
385.8863	0.020251
386.5359	0.019217
387.1856	0.022678
387.8355	0.023206
388.4854	0.023290
389.1355	0.022995
389.7856	0.022488
390.4359	0.022467
391.0863	0.026562
391.7369	0.023881
392.3875	0.026899
393.0383	0.028503
393.6891	0.028123
394.3401	0.025865
394.9912	0.029959
395.6425	0.028377
396.2938	0.027511
396.9453	0.028018
397.5968	0.031458
398.2485	0.032830
398.9003	0.032872
399.5522	0.032576
400.2043	0.032175
400.8564	0.029769
401.5087	0.032935
402.1610	0.034412
402.8135	0.034201
403.4661	0.034307
404.1189	0.032028
404.7717	0.033104
405.4246	0.035151
406.0777	0.034623
406.7309	0.033610
407.3842	0.034834
408.0376	0.032745
408.6911	0.034391
409.3448	0.036945
409.9985	0.034581
410.6524	0.035320
411.3064	0.035088
411.9605	0.035447
412.6147	0.037451
413.2690	0.035658
413.9234	0.036945
414.5780	0.033864
415.2326	0.038085
415.8874	0.035911
416.5423	0.036354
417.1973	0.035299
417.8524	0.034750
418.5077	0.035721
419.1630	0.037261
419.8185	0.036291
420.4741	0.039667
421.1298	0.042284
421.7856	0.044099
422.4415	0.042073
423.0975	0.042453
423.7536	0.040448
424.4099	0.042327
425.0663	0.041503
425.7228	0.039013
426.3793	0.036628
427.0361	0.037219
427.6929	0.041904
428.3498	0.040490
429.0068	0.039414
429.6640	0.044775
430.3213	0.047856
430.9787	0.043340
431.6362	0.039541
432.2938	0.039752
432.9515	0.038486
433.6093	0.043635
434.2673	0.044965
434.9253	0.042031
435.5835	0.042094
436.2418	0.041757
436.9001	0.042854
437.5586	0.044205
438.2173	0.043635
438.8760	0.045598
439.5348	0.043762
440.1938	0.045091
440.8528	0.045218
441.5120	0.056382
442.1713	0.055369
442.8307	0.052583
443.4902	0.053491
444.1498	0.055770
444.8095	0.053702
445.4694	0.053934
446.1293	0.053533
446.7894	0.053259
447.4496	0.051908
448.1098	0.051423
448.7702	0.050431
449.4307	0.054166
450.0914	0.050621
450.7521	0.050114
451.4129	0.048890
452.0739	0.049228
452.7349	0.048827
453.3961	0.046125
454.0574	0.044901
454.7188	0.044521
455.3803	0.046294
456.0419	0.047349
456.7036	0.047771
457.3654	0.047729
458.0274	0.052414
458.6894	0.052013
459.3516	0.051718
460.0138	0.055559
460.6762	0.050325
461.3387	0.051866
462.0013	0.045218
462.6640	0.045408
463.3268	0.049270
463.9897	0.050072
464.6528	0.054103
465.3159	0.056044
465.9792	0.059083
466.6425	0.050705
467.3060	0.048721
467.9696	0.048531
468.6333	0.046632
469.2970	0.046294
469.9610	0.042495
470.6250	0.040659
471.2891	0.041250
471.9533	0.040913
472.6177	0.044247
473.2821	0.044817
473.9467	0.045577
474.6113	0.047476
475.2761	0.050642
475.9410	0.046020
476.6060	0.047096
477.2711	0.045408
477.9363	0.049629
478.6016	0.048531
479.2670	0.047961
479.9325	0.050642
480.5982	0.051528
481.2639	0.050895
481.9298	0.051908
482.5957	0.051802
483.2618	0.051887
483.9280	0.051148
484.5943	0.059083
485.2606	0.058387
485.9271	0.187588
486.5937	0.131028
487.2605	0.097409
487.9273	0.058872
488.5942	0.052921
489.2612	0.052625
489.9284	0.052731
490.5956	0.050431
491.2630	0.052731
491.9304	0.051908
492.5980	0.050747
493.2657	0.049143
493.9334	0.054187
494.6013	0.052119
495.2693	0.052815
495.9374	0.051106
496.6056	0.057374
497.2739	0.052520
497.9423	0.050346
498.6109	0.050367
499.2795	0.052182
499.9482	0.053892
500.6171	0.051781
501.2860	0.053048
501.9551	0.053153
502.6242	0.056298
503.2935	0.056192
503.9628	0.055960
504.6323	0.051591
505.3019	0.050789
505.9716	0.051528
506.6414	0.054905
507.3113	0.047708
507.9813	0.048595
508.6514	0.050156
509.3216	0.048996
509.9919	0.048996
510.6623	0.047645
511.3329	0.048046
512.0035	0.045344
512.6742	0.046674
513.3451	0.044754
514.0160	0.044606
514.6871	0.044163
515.3582	0.043044
516.0295	0.043973
516.7008	0.044500
517.3723	0.040575
518.0439	0.040343
518.7155	0.041503
519.3873	0.043677
520.0592	0.041229
520.7312	0.037240
521.4033	0.040343
522.0755	0.036481
522.7478	0.037536
523.4202	0.037599
524.0927	0.039752
524.7653	0.037451
525.4380	0.036396
526.1108	0.036143
526.7837	0.036417
527.4568	0.037494
528.1299	0.035594
528.8031	0.038042
529.4765	0.041525
530.1499	0.039182
530.8234	0.039667
531.4971	0.035257
532.1708	0.037451
532.8447	0.040554
533.5186	0.044711
534.1927	0.045450
534.8668	0.044775
535.5411	0.045091
536.2155	0.043150
536.8899	0.039878
537.5645	0.040659
538.2392	0.042896
538.9139	0.046315
539.5888	0.045260
540.2638	0.041398
540.9389	0.046083
541.6140	0.049819
542.2893	0.045429
542.9647	0.048088
543.6402	0.049270
544.3158	0.052478
544.9915	0.051570
545.6673	0.049586
546.3432	0.045872
547.0192	0.046463
547.6953	0.053638
548.3715	0.055475
549.0478	0.052752
549.7242	0.049038
550.4007	0.047856
551.0773	0.043656
551.7540	0.045640
552.4308	0.055981
553.1077	0.051739
553.7847	0.052436
554.4618	0.051064
555.1390	0.050810
555.8163	0.053976
556.4937	0.052604
557.1712	0.051591
557.8488	0.051929
558.5266	0.048869
559.2044	0.047096
559.8823	0.046611
560.5603	0.059484
561.2384	0.057712
561.9166	0.058936
562.5949	0.052794
563.2733	0.058324
563.9519	0.057184
564.6305	0.061320
565.3092	0.061679
565.9880	0.061616
566.6669	0.062376
567.3459	0.076115
568.0250	0.080504
568.7043	0.092555
569.3836	0.108615
570.0630	0.141496
570.7425	0.144999
571.4221	0.171506
572.1018	0.185372
572.7816	0.156100
573.4615	0.182797
574.1415	0.202867
574.8216	0.223275
575.5018	0.221819
576.1821	0.198900
576.8626	0.230029
577.5431	0.239652
578.2237	0.293848
578.9044	0.242839
579.5851	0.239694
580.2660	0.247229
580.9470	0.244042
581.6281	0.375227
582.3093	0.363535
582.9906	0.272807
583.6720	0.223423
584.3535	0.230092
585.0351	0.255607
585.7167	0.267510
586.3985	0.232392
587.0804	0.240729
587.7624	0.259955
588.4445	0.221692
589.1266	0.193771
589.8089	0.180476
590.4913	0.163972
591.1737	0.146350
591.8563	0.144746
592.5389	0.167201
593.2217	0.220532
593.9046	0.208967
594.5875	0.188200
595.2705	0.208312
595.9537	0.184422
596.6369	0.154813
597.3203	0.158211
598.0037	0.156037
598.6872	0.168404
599.3709	0.193244
600.0546	0.191872
600.7384	0.196008
601.4223	0.192611
602.1064	0.173195
602.7905	0.179631
603.4747	0.197169
604.1590	0.181193
604.8434	0.164056
605.5279	0.169417
606.2125	0.179906
606.8972	0.162030
607.5819	0.165766
608.2668	0.155425
608.9518	0.145358
609.6369	0.136832
610.3220	0.154095
611.0073	0.144451
611.6927	0.141791
612.3781	0.131387
613.0637	0.130817
613.7493	0.130501
614.4351	0.129973
615.1209	0.127546
615.8068	0.132337
616.4929	0.116677
617.1790	0.111654
617.8652	0.110958
618.5515	0.102200
619.2379	0.091394
619.9244	0.093083
620.6110	0.095488
621.2977	0.075207
621.9845	0.084113
622.6714	0.085548
623.3584	0.092766
624.0454	0.088841
624.7326	0.090740
625.4199	0.083142
626.1072	0.077719
626.7947	0.070459
627.4822	0.070459
628.1698	0.064233
628.8576	0.059358
629.5454	0.061911
630.2333	0.061236
630.9213	0.056699
631.6094	0.055664
632.2976	0.049966
632.9859	0.045640
633.6743	0.046737
634.3628	0.043023
635.0514	0.041989
635.7400	0.041292
636.4288	0.046442
637.1177	0.045556
637.8066	0.039878
638.4957	0.043867
639.1848	0.041166
639.8740	0.036466
640.5633	0.038263
641.2528	0.035312
641.9423	0.033418
642.6319	0.030535
643.3216	0.030213
644.0113	0.028355
644.7012	0.027036
645.3912	0.029345
646.0812	0.026305
646.7714	0.024986
647.4616	0.025975
648.1520	0.029606
648.8424	0.034308
649.5329	0.032919
650.2236	0.029022
650.9143	0.026290
651.6051	0.029661
652.2960	0.032814
652.9870	0.032738
653.6780	0.031782
654.3692	0.032936
655.0605	0.062185
655.7518	0.958900
656.4433	1.000000
657.1348	0.869793
657.8264	0.529456
658.5181	0.401694
659.2099	0.309382
659.9018	0.086961
660.5938	0.030259
661.2859	0.025287
661.9781	0.023063
662.6704	0.021856
663.3627	0.020740
664.0552	0.022747
664.7477	0.021020
665.4403	0.023197
666.1330	0.023925
666.8259	0.021273
667.5188	0.022066
668.2117	0.020654
668.9048	0.020631
669.5980	0.021159
670.2913	0.021560
670.9846	0.020167
671.6781	0.029115
672.3716	0.036016
673.0652	0.032766
673.7589	0.028841
674.4527	0.028250
675.1466	0.027047
675.8406	0.024852
676.5347	0.025992
677.2288	0.024367
677.9231	0.027553
678.6174	0.029980
679.3119	0.030994
680.0064	0.039013
680.7010	0.033020
681.3957	0.036565
682.0905	0.032914
682.7854	0.030909
683.4803	0.029791
684.1754	0.033674
684.8705	0.036143
685.5658	0.045703
686.2611	0.043403
686.9565	0.045788
687.6520	0.043297
688.3476	0.037198
689.0433	0.036122
689.7390	0.037831
690.4349	0.032154
691.1308	0.037240
691.8269	0.037557
692.5230	0.036544
693.2192	0.039604
693.9155	0.036544
694.6119	0.032513
695.3083	0.034075
696.0049	0.029516
696.7016	0.036164
697.3983	0.039773
698.0951	0.038317
698.7920	0.036755
699.4890	0.037008
700.1861	0.031542
700.8833	0.029706
701.5806	0.028609
702.2779	0.030782
702.9753	0.026815
703.6729	0.028166
704.3705	0.029052
705.0682	0.023185
705.7660	0.025169
706.4638	0.029769
707.1618	0.038127
707.8599	0.038802
708.5580	0.037177
709.2562	0.033526
709.9545	0.033948
710.6529	0.035130
711.3514	0.032407
712.0500	0.028672
712.7486	0.029727
713.4474	0.031500
714.1462	0.035510
714.8451	0.035172
715.5441	0.034011
716.2432	0.030445
716.9424	0.027891
717.6416	0.027448
718.3410	0.030930
719.0404	0.029052
719.7399	0.029812
720.4395	0.028081
721.1392	0.029769
721.8390	0.029727
722.5388	0.027701
723.2388	0.026583
723.9388	0.027997
724.6389	0.026984
725.3391	0.032766
726.0394	0.036818
726.7398	0.032956
727.4403	0.030170
728.1408	0.032787
728.8414	0.033167
729.5421	0.035911
730.2429	0.036882
730.9438	0.041841
731.6448	0.042348
732.3458	0.041651
733.0470	0.043487
733.7482	0.045640
734.4495	0.052246
735.1509	0.048341
735.8524	0.048616
736.5539	0.047518
737.2556	0.048426
737.9573	0.043403
738.6591	0.040005
739.3610	0.045851
740.0630	0.045218
740.7651	0.038760
741.4672	0.034940
742.1695	0.036776
742.8718	0.035911
743.5742	0.031141
744.2767	0.031162
744.9792	0.029558
745.6819	0.027364
746.3846	0.027617
747.0874	0.030192
747.7903	0.030698
748.4933	0.030234
749.1964	0.029854
749.8995	0.037283
750.6028	0.040870
751.3061	0.036312
752.0095	0.040891
752.7130	0.035151
753.4166	0.039520
754.1202	0.042348
754.8239	0.039583
755.5278	0.041968
756.2317	0.043719
756.9356	0.051676
757.6397	0.059738
758.3438	0.056192
759.0481	0.052963
759.7524	0.061595
760.4568	0.062249
761.1613	0.061342
761.8658	0.052963
762.5705	0.049185
763.2752	0.048827
763.9800	0.050198
764.6849	0.058450
765.3898	0.057543
766.0949	0.050030
766.8000	0.041461
767.5052	0.037409
768.2105	0.042643
768.9159	0.049122
769.6214	0.045070
770.3269	0.045556
771.0325	0.047771
771.7382	0.045176
772.4440	0.041482
773.1499	0.038296
773.8558	0.037958
774.5618	0.034518
775.2679	0.029390
775.9741	0.028461
776.6804	0.027068
777.3868	0.022573
778.0932	0.024177
778.7997	0.027722
779.5063	0.031458
780.2130	0.030339
780.9197	0.031120
781.6265	0.038042
782.3335	0.034307
783.0405	0.032386
783.7475	0.034434
784.4547	0.030318
785.1619	0.028398
785.8692	0.030318
786.5766	0.026562
787.2841	0.027068
787.9917	0.029854
788.6993	0.031352
789.4070	0.032028
790.1148	0.024578
790.8227	0.023902
791.5306	0.025021
792.2387	0.023755
792.9468	0.022531
793.6550	0.023396
794.3632	0.030044
795.0716	0.032956
795.7800	0.030846
796.4885	0.023016
797.1971	0.021940
797.9058	0.025802
798.6145	0.022763
799.3233	0.021834
800.0322	0.020019
800.7412	0.019027
801.4503	0.017909
802.1594	0.016727
802.8686	0.017086
803.5779	0.019302
804.2873	0.017930
804.9968	0.016516
805.7063	0.017508
806.4159	0.024873
807.1256	0.023691
807.8354	0.022847
808.5452	0.024915
809.2551	0.023459
809.9651	0.019091
810.6752	0.019618
811.3853	0.017803
812.0956	0.016790
812.8059	0.012295
813.5163	0.016009
814.2267	0.018880
814.9373	0.018035
815.6479	0.016094
816.3586	0.013561
817.0694	0.013920
817.7802	0.014427
818.4912	0.012970
819.2022	0.013329
819.9133	0.013224
820.6244	0.013329
821.3357	0.014680
822.0470	0.013793
822.7584	0.013456
823.4698	0.011936
824.1814	0.010375
824.8930	0.011219
825.6047	0.013857
826.3165	0.010691
827.0283	0.014996
827.7402	0.012316
828.4522	0.011789
829.1643	0.013625
829.8765	0.012569
830.5887	0.009889
831.3010	0.008939
832.0134	0.007568
832.7259	0.009066
833.4384	0.009889
834.1510	0.010079
834.8637	0.010923
835.5765	0.009952
836.2893	0.008834
837.0022	0.008370
837.7152	0.009172
838.4283	0.005858
839.1414	0.007568
839.8546	0.007167
840.5679	0.008349
841.2813	0.007821
841.9947	0.006090
842.7082	0.005394
843.4218	0.003748
844.1355	0.005626
844.8492	0.002861
845.5631	0.004993
846.2770	0.006913
846.9909	0.005267
847.7050	0.005521
848.4191	0.005943
849.1333	0.004550
849.8475	0.006428
850.5619	0.004318
851.2763	0.004043
851.9908	0.006196
852.7053	0.008982
853.4200	0.013498
854.1347	0.013308
854.8495	0.014553
855.5643	0.013604
856.2792	0.012886
856.9942	0.014173
857.7093	0.009573
858.4245	0.009256
859.1397	0.008074
859.8550	0.008433
860.5704	0.007504
861.2858	0.005373
862.0013	0.005710
862.7169	0.006238
863.4326	0.006681
864.1483	0.006491
864.8642	0.007146
865.5800	0.004634
866.2960	0.003600
867.0120	0.005373
867.7281	0.005035
868.4443	0.005183
869.1606	0.004486
869.8769	0.006006
870.5933	0.003769
871.3097	0.006238
872.0263	0.007188
872.7429	0.004064
873.4596	0.004550
874.1763	0.004423
874.8932	0.003220
875.6101	0.004318
876.3270	0.004233
877.0441	0.004107
877.7612	0.007652
878.4784	0.006407
879.1957	0.006386
879.9130	0.007800
880.6304	0.008813
881.3479	0.007652
882.0654	0.005943
882.7831	0.006449
883.5007	0.006449
884.2185	0.006639
884.9363	0.008074
885.6542	0.007926
886.3722	0.006154
887.0903	0.005457
887.8084	0.005900
888.5266	0.006618
889.2448	0.006048
889.9632	0.004972
890.6816	0.004951
891.4001	0.005288
892.1186	0.005141
892.8372	0.005267
893.5559	0.005647
894.2747	0.003790
894.9935	0.004022
895.7124	0.003980
896.4314	0.005183
897.1504	0.006660
897.8695	0.004064
898.5887	0.003811
899.3079	0.004296
900.0272	0.004655
900.7466	0.005098
901.4661	0.004719
902.1856	0.004592
902.9052	0.003030
903.6249	0.004128
904.3446	0.005310
905.0644	0.005710
905.7843	0.004170
906.5043	0.004339
907.2243	0.003896
907.9444	0.004697
908.6645	0.003980
909.3847	0.002650
910.1050	0.002735
910.8254	0.004655
911.5458	0.003283
912.2663	0.003896
912.9869	0.002946
913.7075	0.003748
914.4283	0.002144
915.1490	0.002693
915.8699	0.003579
916.5908	0.002460
917.3118	0.004022
918.0328	0.004212
918.7539	0.005141
919.4751	0.004866
920.1964	0.003896
920.9177	0.004149
921.6391	0.002798
922.3606	0.002988
923.0821	0.003452
923.8037	0.004043
924.5254	0.001891
925.2471	0.003241
925.9689	0.002439
926.6908	0.003051
927.4127	0.004697
928.1347	0.002292
928.8568	0.002270
929.5789	0.002693
930.3011	0.002313
931.0234	0.002144
931.7457	0.001933
932.4681	0.003410
933.1906	0.000899
933.9131	0.003326
934.6358	0.002693
935.3584	0.002988
936.0812	0.002165
936.8040	0.001173
937.5269	0.000941
938.2498	0.000814
938.9728	0.002038
939.6959	0.002334
940.4190	0.000498
941.1422	0.000202
941.8655	0.000856
942.5889	0.001384
943.3123	0.001089
944.0357	0.000835
944.7593	0.000899
945.4829	0.001447
946.2066	0.000941
946.9303	0.001131
947.6541	0.000477
948.3780	-0.000811
949.1019	0.001363
949.8259	-0.001148
950.5500	0.001595
951.2741	0.001764
951.9983	0.001363
952.7226	-0.000368
953.4469	0.002587
954.1713	0.000667
954.8958	0.001447
955.6203	0.000329
956.3449	0.001447
957.0696	0.002861
957.7943	0.000434
958.5191	0.001089
959.2439	0.001405
959.9688	0.000033
960.6938	0.000561
961.4189	-0.000452
962.1440	0.000519
962.8692	0.000540
963.5944	0.001025
964.3197	0.000371
965.0451	0.001236
965.7705	-0.000072
966.4960	0.001912
967.2216	0.001004
967.9472	0.001152
968.6729	0.001869
969.3987	0.001764
970.1245	-0.000515
970.8504	0.000329
971.5763	0.001363
972.3023	0.001089
973.0284	0.001131
973.7545	0.000941
974.4807	0.000139
975.2070	0.000645
975.9333	-0.001592
976.6597	0.000244
977.3862	0.002207
978.1127	0.001616
978.8393	0.000645
979.5659	-0.000304
980.2926	-0.000072
981.0194	-0.000304
981.7462	-0.000199
982.4731	0.001004
983.2001	0.000688
983.9271	-0.000220
984.6542	0.000392
985.3814	0.000012
986.1086	0.001215
986.8358	0.001891
987.5632	-0.001001
988.2906	0.002228
989.0180	-0.000346
989.7456	0.000793
990.4732	-0.000220
991.2008	-0.000832
991.9285	-0.000895
992.6563	0.000308
993.3841	-0.000579
994.1120	-0.000346
994.8400	0.000139
995.5680	0.000329
996.2961	-0.001212
997.0242	0.000202
997.7524	0.002334
998.4807	0.001215
999.2090	-0.000304
999.9374	-0.000157
1000.67	0.001173
1001.39	0.000540
1002.12	0.000498
1002.85	-0.000895
1003.58	0.001173
1004.31	-0.000431
1005.04	-0.000431
1005.77	-0.000283
1006.5	0.001236
1007.22	-0.000051
1007.95	0.000350
1008.68	-0.001191
1009.41	0.001257
1010.14	0.000456
1010.87	0.001110
1011.6	-0.000874
1012.33	0.001321
1013.06	0.001827
1013.79	0.000856
1014.52	0.000287
1015.25	0.001553
1015.98	-0.000705
1016.71	0.000181
1017.44	-0.000684
1018.17	0.001194
1018.9	-0.001085
1019.63	-0.000072
1020.36	-0.000368
1021.09	-0.000072
1021.82	-0.000558
1022.55	-0.000515
1023.03	0.000730