File: Auto_Polymerization/Data/UV_VIS_Spectra/MRG-061-F-2_spectra_while_stopped/spectrum_2025-06-19_12-40-13_absorbance.txt
# Wavelength	Absorbance
197.78 2.878522
198.392 0.843296
199.004 -0.010864
199.617 2.768638
200.229 0.343319
200.842 2.902003
201.455 3.220892
202.067 0.033695
202.68 0.537335
203.294 2.745075
203.907 0.286944
204.52 0.229811
205.134 0.463344
205.748 2.682145
206.361 -3.260310
206.975 -0.802791
207.589 -3.218010
208.204 0.268627
208.818 -0.039750
209.433 -0.189309
210.047 -0.235577
210.662 0.383280
211.277 -0.315547
211.892 2.480007
212.507 1.089209
213.122 2.866287
213.738 -0.022748
214.353 0.000000
214.969 0.136858
215.585 0.238429
216.201 2.806180
216.817 2.833784
217.433 2.536558
218.049 0.000000
218.666 3.186674
219.282 0.547646
219.899 0.327623
220.516 -3.132260
221.133 0.082459
221.75 0.770255
222.368 -0.198315
222.985 -2.805501
223.603 -0.848124
224.22 0.427651
224.838 0.115175
225.456 2.653213
226.074 -0.296962
226.692 -2.859138
227.311 0.252796
227.929 3.252853
228.548 0.818192
229.167 0.000000
229.786 2.791691
230.405 1.963788
231.024 2.191451
231.643 -0.041166
232.262 0.309776
232.882 2.599883
233.501 -0.148763
234.121 0.000000
234.741 0.322358
235.361 0.709244
235.982 0.001191
236.602 -2.413300
237.222 -0.197068
237.843 1.851258
238.464 3.063333
239.084 -3.342620
239.706 -0.326894
240.327 -1.069978
240.948 0.071784
241.569 1.217484
242.191 -0.077830
242.812 -0.362654
243.434 0.867961
244.056 -3.017033
244.678 0.635268
245.3 -0.120632
245.923 0.578966
246.545 2.396199
247.167 0.254902
247.79 1.845098
248.413 0.582704
249.036 0.211056
249.659 0.193872
250.282 1.350641
250.906 -0.480464
251.529 2.008600
252.153 0.309586
252.776 -0.668759
253.4 0.399709
254.024 -0.135435
254.648 -0.256338
255.273 0.238466
255.897 0.146533
256.521 2.827369
257.146 -0.230257
257.771 0.000000
258.396 1.128543
259.021 -0.174726
259.646 3.198382
260.271 -0.069905
260.897 0.263403
261.522 0.182231
262.148 0.317797
262.774 -0.224848
263.399 3.206826
264.026 0.021451
264.652 0.425506
265.278 0.281069
265.904 0.079279
266.531 2.294466
267.158 -0.044624
267.784 0.071662
268.411 -0.012625
269.038 2.123852
269.666 0.036253
270.293 -2.819544
270.921 -0.061638
271.548 2.691965
272.176 0.625363
272.804 -0.082884
273.432 -0.018026
274.06 0.186293
274.688 0.440045
275.316 0.183805
275.945 -0.042502
276.573 2.840106
277.202 0.214128
277.831 1.279746
278.46 0.890184
279.089 -0.127579
279.718 0.095522
280.348 2.632457
280.977 -0.292791
281.607 -2.652246
282.237 -0.248267
282.866 2.791691
283.497 0.090582
284.127 0.146128
284.757 -0.169354
285.387 0.000000
286.018 3.294246
286.648 2.940516
287.279 -0.348114
287.91 0.500602
288.541 0.791853
289.172 -2.805501
289.803 -2.805501
290.435 -2.630428
291.067 3.146128
291.698 -0.420571
292.33 3.042969
292.962 -3.034227
293.594 2.994757
294.226 -3.104487
294.858 3.074816
295.491 -2.585461
296.123 0.188922
296.756 -0.008021
297.389 2.935003
298.022 0.253797
298.654 -0.005733
299.288 0.000000
299.921 0.235822
300.554 0.183917
301.188 3.104487
301.822 0.605071
302.455 -0.091605
303.089 2.357935
303.723 -0.005140
304.357 -0.773857
304.992 -0.232416
305.626 2.294466
306.261 0.000386
306.895 1.160214
307.53 0.075339
308.165 0.000000
308.8 -0.084368
309.435 -0.309419
310.07 0.094818
310.706 0.169508
311.341 0.476902
311.977 3.142702
312.613 0.179690
313.249 3.332034
313.885 0.135995
314.521 0.920137
315.157 1.242285
315.793 2.653213
316.43 0.372886
317.067 3.463445
317.703 0.356256
318.34 2.398634
318.977 0.876491
319.614 0.219303
320.252 0.033199
320.889 -0.747071
321.526 0.272028
322.164 1.717606
322.802 1.488918
323.44 0.728163
324.078 0.674447
324.716 0.143882
325.354 3.583765
325.992 0.162421
326.631 0.641476
327.269 3.416973
327.908 0.313326
328.547 3.636688
329.186 1.379619
329.825 1.006587
330.464 0.532816
331.104 0.642807
331.743 0.280467
332.383 3.520876
333.022 0.805321
333.662 3.609381
334.302 1.619947
334.942 0.676591
335.582 0.850594
336.223 1.711995
336.863 0.736035
337.504 0.838951
338.144 0.418178
338.785 0.644400
339.426 0.985417
340.067 0.791023
340.708 0.785072
341.349 1.040185
341.991 3.831166
342.632 1.540426
343.274 0.531011
343.916 3.793022
344.558 0.747895
345.2 0.884119
345.842 0.441415
346.484 3.898615
347.126 3.906012
347.769 3.886321
348.411 3.880871
349.054 0.936635
349.697 0.824377
350.34 3.937869
350.983 3.218850
351.626 3.954918
352.27 3.959471
352.913 3.896857
353.557 3.994713
354.2 1.976656
354.844 0.600698
355.488 3.989138
356.132 1.075509
356.776 1.439033
357.421 1.168658
358.065 1.807243
358.709 1.321798
359.354 3.988202
359.999 1.197796
360.644 3.982497
361.289 1.667394
361.934 1.824632
362.579 0.823295
363.224 4.031206
363.87 1.982841
364.515 4.049102
365.161 0.951068
365.807 1.200859
366.453 2.164320
367.099 0.966024
367.745 4.114678
368.392 0.857078
369.038 1.303836
369.685 4.136974
370.331 1.238709
370.978 1.867440
371.625 1.976017
372.272 2.055805
372.919 1.159807
373.566 4.154637
374.214 4.167937
374.861 0.873292
375.509 2.540143
376.156 1.552358
376.804 1.236025
377.452 1.187390
378.1 1.003334
378.748 4.301356
379.397 4.318189
380.045 1.559033
380.694 1.535792
381.342 4.319959
381.991 2.183744
382.64 4.341553
383.289 4.351042
383.938 1.964723
384.587 1.340617
385.237 1.230851
385.886 1.278319
386.536 4.371972
387.186 1.138628
387.836 1.329658
388.485 4.402760
389.135 1.913188
389.786 1.210517
390.436 1.635582
391.086 1.183934
391.737 1.714189
392.387 1.457402
393.038 1.713079
393.689 1.014859
394.34 0.893338
394.991 1.179646
395.642 0.945424
396.294 1.064009
396.945 1.028175
397.597 0.881865
398.248 0.961198
398.9 0.914954
399.552 0.884740
400.204 0.938452
400.856 1.024731
401.509 0.839417
402.161 0.815906
402.813 0.842685
403.466 0.706334
404.119 0.666872
404.772 0.612344
405.425 0.708107
406.078 0.736839
406.731 0.706870
407.384 0.703753
408.038 0.637754
408.691 0.663348
409.345 0.657201
409.998 0.672016
410.652 0.577412
411.306 0.584927
411.961 0.557802
412.615 0.570781
413.269 0.581653
413.923 0.557293
414.578 0.556038
415.233 0.509774
415.887 0.471635
416.542 0.462645
417.197 0.432996
417.852 0.445225
418.508 0.441335
419.163 0.436980
419.818 0.449597
420.474 0.411675
421.13 0.418348
421.786 0.403974
422.442 0.425229
423.098 0.383830
423.754 0.423332
424.41 0.404605
425.066 0.453440
425.723 0.366882
426.379 0.351020
427.036 0.339410
427.693 0.372531
428.35 0.346617
429.007 0.338144
429.664 0.334310
430.321 0.371678
430.979 0.343896
431.636 0.305270
432.294 0.359355
432.952 0.368175
433.609 0.397571
434.267 0.349117
434.925 0.360361
435.584 0.340323
436.242 0.287066
436.9 0.318868
437.559 0.333852
438.217 0.302378
438.876 0.313154
439.535 0.304967
440.194 0.338621
440.853 0.332475
441.512 0.327503
442.171 0.344258
442.831 0.316919
443.49 0.295008
444.15 0.354188
444.81 0.345736
445.469 0.357606
446.129 0.353400
446.789 0.389863
447.45 0.412834
448.11 0.354544
448.77 0.346308
449.431 0.392121
450.091 0.390321
450.752 0.396803
451.413 0.462329
452.074 0.407926
452.735 0.377956
453.396 0.405196
454.057 0.396385
454.719 0.406075
455.38 0.413243
456.042 0.414036
456.704 0.424917
457.365 0.472126
458.027 0.463646
458.689 0.415095
459.352 0.494420
460.014 0.458181
460.676 0.508970
461.339 0.485067
462.001 0.517018
462.664 0.514491
463.327 0.532239
463.99 0.562156
464.653 0.503906
465.316 0.605108
465.979 0.613574
466.642 0.634458
467.306 0.628382
467.97 0.592029
468.633 0.576417
469.297 0.658723
469.961 0.608311
470.625 0.669154
471.289 0.629700
471.953 0.651943
472.618 0.669816
473.282 0.739500
473.947 0.735195
474.611 0.846260
475.276 0.743470
475.941 0.770568
476.606 0.678453
477.271 0.775713
477.936 0.774011
478.602 0.854958
479.267 0.851283
479.933 0.895622
480.598 0.873061
481.264 0.956881
481.93 0.959993
482.596 0.827656
483.262 0.850176
483.928 0.918440
484.594 0.858805
485.261 0.969908
485.927 1.006644
486.594 0.996150
487.26 1.061054
487.927 0.932405
488.594 0.993192
489.261 1.042077
489.928 1.024936
490.596 1.043913
491.263 1.058064
491.93 1.217002
492.598 1.086640
493.266 1.157912
493.933 1.039372
494.601 1.051540
495.269 1.134785
495.937 1.126733
496.606 1.149561
497.274 1.415005
497.942 1.064332
498.611 1.338544
499.279 1.060515
499.948 1.107750
500.617 1.156186
501.286 1.143065
501.955 1.154681
502.624 1.034678
503.293 1.325405
503.963 1.294930
504.632 1.146077
505.302 1.258484
505.972 1.276508
506.641 1.327243
507.311 1.120164
507.981 1.163965
508.651 1.085746
509.322 1.156436
509.992 1.093544
510.662 1.439851
511.333 0.996467
512.004 1.178074
512.674 1.019161
513.345 1.178716
514.016 1.210314
514.687 1.194616
515.358 1.125028
516.029 1.270373
516.701 1.223279
517.372 1.202165
518.044 0.978210
518.716 1.042026
519.387 1.514841
520.059 0.953841
520.731 1.026881
521.403 0.989436
522.076 0.970595
522.748 1.042054
523.42 1.091456
524.093 0.985228
524.765 0.917294
525.438 1.046071
526.111 0.991574
526.784 0.965638
527.457 0.947429
528.13 0.943187
528.803 1.045455
529.476 0.872856
530.15 0.901702
530.823 0.798691
531.497 0.879929
532.171 0.836015
532.845 0.947085
533.519 0.797910
534.193 0.800344
534.867 0.794462
535.541 0.793004
536.216 0.700213
536.89 0.719690
537.564 0.695432
538.239 0.721516
538.914 0.663565
539.589 0.741141
540.264 0.671503
540.939 0.643142
541.614 0.645365
542.289 0.642995
542.965 0.624984
543.64 0.584919
544.316 0.577464
544.991 0.544746
545.667 0.563126
546.343 0.519508
547.019 0.470127
547.695 0.458030
548.371 0.470081
549.048 0.492389
549.724 0.467206
550.401 0.419217
551.077 0.432458
551.754 0.423610
552.431 0.403675
553.108 0.357671
553.785 0.379336
554.462 0.369559
555.139 0.348729
555.816 0.343093
556.494 0.350731
557.171 0.332530
557.849 0.282124
558.527 0.296273
559.204 0.279287
559.882 0.275992
560.56 0.271890
561.238 0.270296
561.917 0.282044
562.595 0.245228
563.273 0.249599
563.952 0.214736
564.63 0.230804
565.309 0.209830
565.988 0.209210
566.667 0.195145
567.346 0.208671
568.025 0.172771
568.704 0.173550
569.384 0.173594
570.063 0.171014
570.742 0.169199
571.422 0.165426
572.102 0.147626
572.782 0.152157
573.462 0.143923
574.141 0.143349
574.822 0.128247
575.502 0.128770
576.182 0.138602
576.863 0.120426
577.543 0.129849
578.224 0.117212
578.904 0.103416
579.585 0.099096
580.266 0.099880
580.947 0.079480
581.628 0.095466
582.309 0.091328
582.991 0.081402
583.672 0.072577
584.354 0.069307
585.035 0.072371
585.717 0.080582
586.399 0.069161
587.08 0.066980
587.762 0.065403
588.444 0.064616
589.127 0.060416
589.809 0.048778
590.491 0.048601
591.174 0.045569
591.856 0.065250
592.539 0.055134
593.222 0.070932
593.905 0.056690
594.587 0.051604
595.27 0.049501
595.954 0.042504
596.637 0.050906
597.32 0.046021
598.004 0.044123
598.687 0.045811
599.371 0.045574
600.055 0.048173
600.738 0.037378
601.422 0.028972
602.106 0.042552
602.79 0.039839
603.475 0.039958
604.159 0.035175
604.843 0.038307
605.528 0.021927
606.212 0.022865
606.897 0.010101
607.582 0.040004
608.267 0.020148
608.952 0.029941
609.637 0.028612
610.322 0.028611
611.007 0.019039
611.693 0.022968
612.378 0.032095
613.064 0.014809
613.749 0.012929
614.435 0.026310
615.121 0.022517
615.807 0.029159
616.493 0.015272
617.179 0.018122
617.865 0.000797
618.552 0.010903
619.238 0.035635
619.924 0.014791
620.611 0.017919
621.298 0.021468
621.985 0.020183
622.671 0.026162
623.358 0.018982
624.045 0.033407
624.733 0.018687
625.42 0.001415
626.107 0.007957
626.795 0.019938
627.482 0.035080
628.17 0.008463
628.858 0.009883
629.545 0.004665
630.233 0.027282
630.921 0.008543
631.609 0.027483
632.298 0.016003
632.986 0.013792
633.674 0.019929
634.363 0.018317
635.051 0.021834
635.74 0.017613
636.429 0.016584
637.118 0.019257
637.807 0.032675
638.496 0.029436
639.185 0.008042
639.874 0.005660
640.563 -0.021698
641.253 -0.013560
641.942 0.030974
642.632 -0.018120
643.322 0.005034
644.011 0.018443
644.701 -0.011429
645.391 0.039753
646.081 0.004293
646.771 -0.005365
647.462 -0.000843
648.152 0.034193
648.842 0.010939
649.533 0.039058
650.224 0.024893
650.914 -0.013290
651.605 -0.008328
652.296 0.018781
652.987 -0.007592
653.678 -0.014584
654.369 0.013495
655.061 0.018472
655.752 0.035041
656.443 0.001458
657.135 0.026042
657.826 0.019311
658.518 0.010887
659.21 0.001015
659.902 -0.038351
660.594 -0.010017
661.286 0.001191
661.978 -0.001074
662.67 0.038885
663.363 0.008085
664.055 0.054669
664.748 0.010193
665.44 0.033591
666.133 0.030529
666.826 0.010452
667.519 -0.009717
668.212 0.010256
668.905 0.001007
669.598 -0.021093
670.291 0.073103
670.985 0.014869
671.678 0.032929
672.372 0.037068
673.065 0.004943
673.759 0.023476
674.453 -0.004771
675.147 0.002940
675.841 0.021279
676.535 0.008722
677.229 -0.015290
677.923 0.017225
678.617 -0.007945
679.312 0.006358
680.006 0.025925
680.701 0.028316
681.396 0.022164
682.091 0.010658
682.785 -0.007645
683.48 -0.006147
684.175 0.042610
684.87 0.006071
685.566 0.045120
686.261 0.022343
686.957 -0.021443
687.652 -0.002998
688.348 0.018726
689.043 0.023365
689.739 0.020862
690.435 -0.004421
691.131 0.015980
691.827 0.007172
692.523 0.012722
693.219 0.008417
693.915 0.007053
694.612 -0.030024
695.308 0.029167
696.005 0.007944
696.702 0.000969
697.398 0.011465
698.095 0.014269
698.792 -0.026248
699.489 -0.003647
700.186 0.015129
700.883 0.021138
701.581 0.030153
702.278 0.021184
702.975 0.000043
703.673 0.037968
704.37 0.003433
705.068 -0.033637
705.766 0.023122
706.464 0.027156
707.162 -0.017081
707.86 0.035043
708.558 -0.011197
709.256 0.032571
709.955 -0.029908
710.653 -0.015884
711.351 -0.040942
712.05 0.034589
712.749 0.017676
713.447 0.011873
714.146 -0.013539
714.845 0.006362
715.544 0.017635
716.243 -0.027770
716.942 -0.009974
717.642 -0.018018
718.341 0.030080
719.04 0.021139
719.74 -0.030918
720.439 -0.015492
721.139 0.003425
721.839 0.039724
722.539 0.001623
723.239 0.005853
723.939 0.015788
724.639 0.054997
725.339 0.014420
726.039 0.023370
726.74 0.017339
727.44 0.036597
728.141 -0.011757
728.841 0.000414
729.542 -0.003983
730.243 0.005172
730.944 0.016407
731.645 0.033403
732.346 0.023959
733.047 -0.006348
733.748 0.008618
734.449 0.008282
735.151 0.001053
735.852 0.035473
736.554 0.023142
737.256 0.018818
737.957 -0.013728
738.659 -0.001726
739.361 0.012410
740.063 0.002168
740.765 0.021510
741.467 0.038983
742.169 -0.004354
742.872 -0.000955
743.574 0.010575
744.277 -0.004429
744.979 0.016060
745.682 -0.028876
746.385 0.024425
747.087 0.003630
747.79 0.019717
748.493 0.000044
749.196 -0.005859
749.899 -0.003385
750.603 0.031715
751.306 0.008421
752.01 0.020655
752.713 0.019028
753.417 0.033652
754.12 0.038023
754.824 -0.016658
755.528 -0.002518
756.232 0.020706
756.936 0.012513
757.64 0.007878
758.344 0.003183
759.048 0.014813
759.752 0.011600
760.457 0.010899
761.161 -0.008353
761.866 0.011746
762.571 -0.000473
763.275 0.016941
763.98 0.023132
764.685 0.031337
765.39 0.001439
766.095 0.000727
766.8 -0.005072
767.505 0.001750
768.211 -0.002679
768.916 0.029101
769.621 -0.003849
770.327 0.000030
771.033 -0.005894
771.738 0.028080
772.444 0.030407
773.15 -0.009038
773.856 -0.000984
774.562 -0.009164
775.268 -0.019163
775.974 0.024422
776.68 0.055000
777.387 0.041716
778.093 0.033493
778.8 -0.000106
779.506 0.031102
780.213 0.015944
780.92 0.028149
781.626 0.023804
782.333 0.014332
783.04 0.014500
783.747 0.017964
784.455 0.023214
785.162 0.018515
785.869 0.003317
786.577 -0.005177
787.284 0.034316
787.992 0.007062
788.699 -0.006094
789.407 -0.008958
790.115 0.023169
790.823 0.045444
791.531 0.006070
792.239 0.016071
792.947 -0.021093
793.655 0.041389
794.363 -0.017667
795.072 0.039168
795.78 0.029540
796.489 0.030966
797.197 0.030265
797.906 0.044561
798.615 0.016865
799.323 0.023493
800.032 0.015378
800.741 -0.017123
801.45 0.059519
802.159 0.013124
802.869 0.026101
803.578 0.042151
804.287 0.010225
804.997 0.017793
805.706 0.021581
806.416 -0.003286
807.126 0.009467
807.835 0.003143
808.545 0.005877
809.255 0.027712
809.965 -0.011592
810.675 -0.002496
811.385 -0.000501
812.096 -0.060121
812.806 0.033132
813.516 -0.090666
814.227 0.011265
814.937 -0.011402
815.648 -0.048984
816.359 -0.030825
817.069 -0.030781
817.78 -0.025453
818.491 0.000784
819.202 0.012810
819.913 -0.037622
820.624 0.010283
821.336 0.108905
822.047 0.065644
822.758 0.051834
823.47 0.064584
824.181 0.042650
824.893 -0.020210
825.605 0.001760
826.317 -0.006214
827.028 0.061364
827.74 0.011536
828.452 0.041120
829.164 -0.057149
829.876 -0.035971
830.589 0.029734
831.301 0.101842
832.013 0.089536
832.726 -0.026087
833.438 -0.007559
834.151 -0.035780
834.864 0.074905
835.577 0.024083
836.289 0.086059
837.002 0.098401
837.715 -0.111967
838.428 -0.021875
839.141 0.064858
839.855 0.010269
840.568 0.056690
841.281 -0.050622
841.995 -0.021139
842.708 -0.066923
843.422 0.077646
844.135 0.170264
844.849 -0.118003
845.563 0.003579
846.277 -0.060007
846.991 -0.073130
847.705 -0.051493
848.419 0.046658
849.133 0.037860
849.847 0.045200
850.562 -0.005097
851.276 -0.129354
851.991 -0.010828
852.705 -0.094138
853.42 -0.070535
854.135 0.046480
854.85 0.071997
855.564 0.033598
856.279 0.035835
856.994 -0.045326
857.709 0.061380
858.424 -0.069764
859.14 -0.014591
859.855 -0.004919
860.57 0.032291
861.286 -0.047692
862.001 0.036753
862.717 -0.074391
863.433 0.040743
864.148 -0.105182
864.864 0.056565
865.58 -0.066172
866.296 -0.002815
867.012 0.053208
867.728 -0.024526
868.444 -0.009178
869.161 -0.099047
869.877 0.061408
870.593 -0.005027
871.31 0.015897
872.026 -0.066119
872.743 0.042631
873.46 0.140849
874.176 0.028713
874.893 0.039581
875.61 0.115986
876.327 0.019255
877.044 -0.151483
877.761 -0.062614
878.478 -0.014070
879.196 0.132285
879.913 -0.077573
880.63 0.036612
881.348 0.080919
882.065 0.039918
882.783 0.101017
883.501 -0.028766
884.218 -0.068218
884.936 0.098985
885.654 -0.011803
886.372 -0.025220
887.09 0.020493
887.808 -0.070450
888.527 -0.057152
889.245 -0.023970
889.963 -0.055969
890.682 -0.093516
891.4 0.093483
892.119 -0.040839
892.837 0.211167
893.556 0.037565
894.275 0.067472
894.994 0.075610
895.712 0.054003
896.431 0.249877
897.15 -0.082474
897.87 0.007187
898.589 -0.097855
899.308 0.058231
900.027 -0.256829
900.747 0.041003
901.466 -0.035396
902.186 -0.046371
902.905 0.174659
903.625 0.093771
904.345 -0.065058
905.064 0.160594
905.784 0.185637
906.504 0.001426
907.224 0.009651
907.944 -0.105197
908.664 -0.028422
909.385 0.032342
910.105 -0.107686
910.825 0.137029
911.546 -0.095493
912.266 0.035420
912.987 0.110940
913.707 -0.201377
914.428 -0.011133
915.149 0.072775
915.87 0.088585
916.591 -0.059484
917.312 0.031442
918.033 -0.033430
918.754 0.145360
919.475 0.078032
920.196 -0.081549
920.918 -0.009204
921.639 0.049419
922.361 0.127680
923.082 -0.085775
923.804 -0.029977
924.525 -0.072679
925.247 -0.129391
925.969 -0.044115
926.691 0.355018
927.413 -0.055969
928.135 0.197378
928.857 -0.007247
929.579 0.304389
930.301 -0.127622
931.023 0.094935
931.746 -0.026500
932.468 0.637372
933.191 -0.089837
933.913 -0.211872
934.636 -0.051656
935.358 -0.138792
936.081 0.077617
936.804 -0.020375
937.527 0.117760
938.25 0.643684
938.973 0.251158
939.696 0.534728
940.419 -0.201152
941.142 -0.160637
941.865 -0.111074
942.589 -0.102023
943.312 0.509069
944.036 0.606613
944.759 3.391641
945.483 -0.142538
946.207 -0.296402
946.93 -0.029860
947.654 -0.066061
948.378 -0.456339
949.102 0.055945
949.826 -0.165384
950.55 -0.218024
951.274 -0.213751
951.998 -0.039637
952.723 -0.236563
953.447 -0.054149
954.171 -1.541537
954.896 0.286110
955.62 -0.010347
956.345 -0.201287
957.07 -0.116199
957.794 -0.061060
958.519 -0.075044
959.244 -0.055033
959.969 -0.041916
960.694 -0.060925
961.419 -0.444045
962.144 -0.266997
962.869 -0.231034
963.594 0.245026
964.32 0.165814
965.045 -0.436417
965.77 -0.063188
966.496 0.102600
967.222 -0.208791
967.947 -0.499148
968.673 0.208305
969.399 -0.571673
970.125 -0.010273
970.85 -0.279332
971.576 1.183817
972.302 0.122793
973.028 -0.194057
973.755 0.046869
974.481 -0.116649
975.207 0.156568
975.933 2.853698
976.66 0.016087
977.386 -0.387185
978.113 -0.488588
978.839 0.447158
979.566 -0.461780
980.293 0.149462
981.019 -0.568368
981.746 1.146128
982.473 -0.193575
983.2 2.990339
983.927 0.705730
984.654 -0.273805
985.381 0.162471
986.109 0.000000
986.836 0.091936
987.563 2.700704
988.291 -0.085915
989.018 0.579983
989.746 2.123852
990.473 1.520534
991.201 0.790832
991.928 -2.585461
992.656 -0.122989
993.384 -0.004113
994.112 0.851937
994.84 0.000000
995.568 0.550342
996.296 0.100642
997.024 2.049218
997.752 0.648064
998.481 -0.398945
999.209 -3.097257
999.937 2.318063
1000.67 0.024287
1001.39 2.745075
1002.12 1.425133
1002.85 -0.153415
1003.58 0.000000
1004.31 2.719331
1005.04 0.245706
1005.77 0.040394
1006.5 0.365755
1007.22 2.653213
1007.95 0.020647
1008.68 2.691965
1009.41 -2.833147
1010.14 -0.527501
1010.87 -0.012004
1011.6 -1.721324
1012.33 0.532663
1013.06 0.000000
1013.79 -0.069021
1014.52 -0.015281
1015.25 2.940516
1015.98 2.450249
1016.71 2.190332
1017.44 2.562293
1018.17 3.231724
1018.9 -0.325141
1019.63 0.175605
1020.36 0.067332
1021.09 3.287130
1021.82 -2.120574
1022.55 2.902003
1023.03 -0.127105