File: Auto_Polymerization/Data/UV_VIS_Spectra/MRG-061-F-2_spectra_while_stopped/spectrum_2025-06-19_12-09-32.txt
# Wavelength (nm)	Intensity (a.u.)
197.7802	-0.000206
198.3922	0.001546
199.0044	0.001420
199.6168	0.000470
200.2292	0.001863
200.8418	0.000153
201.4546	0.001272
202.0674	-0.000142
202.6805	0.000174
203.2936	0.001061
203.9069	0.000343
204.5203	0.000449
205.1338	0.000153
205.7475	0.002201
206.3614	0.000554
206.9753	0.001209
207.5894	0.001462
208.2036	0.000786
208.8180	0.000871
209.4325	0.000090
210.0471	0.001145
210.6618	-0.001029
211.2767	0.000723
211.8918	0.000153
212.5069	0.001019
213.1222	-0.001409
213.7376	0.000829
214.3532	0.001272
214.9689	0.000554
215.5847	-0.000121
216.2007	0.000470
216.8168	-0.001662
217.4330	-0.000691
218.0494	0.000385
218.6659	-0.000142
219.2825	-0.001430
219.8992	-0.001050
220.5161	-0.001114
221.1332	0.000997
221.7503	0.000047
222.3676	0.000744
222.9850	0.001377
223.6026	-0.000269
224.2203	0.000554
224.8381	0.000491
225.4561	-0.000121
226.0742	0.001082
226.6924	-0.000332
227.3107	-0.000290
227.9292	0.000153
228.5478	0.000343
229.1666	0.000723
229.7855	-0.000142
230.4045	0.000195
231.0236	0.000660
231.6429	-0.000164
232.2623	0.001124
232.8818	0.000575
233.5015	0.001990
234.1213	0.000280
234.7413	0.001757
235.3613	0.000786
235.9815	0.000512
236.6018	0.000427
237.2223	-0.000987
237.8429	-0.000438
238.4636	-0.000058
239.0845	0.000470
239.7055	0.000913
240.3266	0.001631
240.9478	0.000195
241.5692	0.001061
242.1907	0.000554
242.8124	0.001145
243.4341	0.001166
244.0560	0.000237
244.6781	0.000765
245.3002	0.000997
245.9225	0.000090
246.5449	0.000216
247.1675	0.001356
247.7902	0.001567
248.4130	0.000153
249.0359	0.001800
249.6590	-0.000396
250.2822	0.001504
250.9056	0.001187
251.5290	0.000829
252.1526	0.000786
252.7763	0.000744
253.4002	0.000491
254.0242	-0.000797
254.6483	0.000512
255.2725	-0.000459
255.8969	0.001441
256.5214	-0.000248
257.1460	0.000765
257.7708	-0.000121
258.3957	0.000850
259.0207	-0.000354
259.6459	0.000047
260.2711	0.000491
260.8965	0.002032
261.5221	-0.001071
262.1477	0.001124
262.7735	-0.000037
263.3995	-0.000522
264.0255	0.000047
264.6517	0.000913
265.2780	-0.000121
265.9044	-0.000037
266.5310	0.000976
267.1577	0.000005
267.7845	0.000090
268.4114	0.000322
269.0385	0.001103
269.6657	0.000596
270.2931	-0.000396
270.9205	0.000364
271.5481	-0.000290
272.1758	-0.000501
272.8037	0.000575
273.4316	0.000934
274.0597	-0.000438
274.6880	0.000955
275.3163	0.001842
275.9448	0.000069
276.5734	0.000554
277.2022	-0.000227
277.8310	0.000554
278.4600	-0.000142
279.0891	0.001082
279.7184	-0.000248
280.3477	0.000343
280.9772	0.000385
281.6069	0.000512
282.2366	0.001209
282.8665	-0.000607
283.4965	0.001736
284.1266	0.000554
284.7569	0.000702
285.3873	0.000322
286.0178	0.000807
286.6484	0.000153
287.2792	0.000892
287.9101	-0.000185
288.5411	0.000216
289.1723	0.000617
289.8035	-0.000142
290.4349	-0.000079
291.0665	0.000744
291.6981	-0.001029
292.3299	0.000343
292.9618	0.000660
293.5938	0.000892
294.2260	0.000723
294.8582	-0.000501
295.4906	0.000195
296.1232	-0.000459
296.7558	0.000871
297.3886	0.001842
298.0215	-0.001198
298.6545	0.000892
299.2877	0.000343
299.9210	-0.001050
300.5544	0.000301
301.1879	0.000322
301.8215	0.000660
302.4553	0.000174
303.0892	0.001462
303.7233	0.001293
304.3574	0.002137
304.9917	0.000871
305.6261	0.000301
306.2606	0.000533
306.8953	0.000976
307.5301	0.000090
308.1650	-0.000311
308.8000	0.001420
309.4351	-0.000501
310.0704	0.000385
310.7058	0.000723
311.3413	0.002011
311.9770	0.000174
312.6127	0.000047
313.2486	0.002349
313.8846	0.000744
314.5208	0.000026
315.1570	0.000765
315.7934	0.000744
316.4299	0.000617
317.0666	0.000596
317.7033	0.002137
318.3402	0.001800
318.9772	0.000491
319.6143	0.000280
320.2516	0.000934
320.8890	-0.000860
321.5265	-0.000586
322.1641	0.000069
322.8018	0.001504
323.4397	0.000153
324.0777	0.001631
324.7158	0.000449
325.3540	-0.000016
325.9924	0.000406
326.6308	0.000744
327.2694	0.000934
327.9082	0.000639
328.5470	0.000195
329.1860	0.001483
329.8251	-0.000354
330.4643	0.002053
331.1036	-0.000607
331.7431	0.000301
332.3826	-0.000712
333.0223	0.001631
333.6622	0.000216
334.3021	0.000237
334.9422	0.000153
335.5823	0.000259
336.2227	0.000702
336.8631	0.002327
337.5036	0.000237
338.1443	0.002454
338.7851	0.000280
339.4260	-0.000480
340.0670	0.000596
340.7082	-0.000058
341.3495	0.001209
341.9909	-0.000100
342.6324	-0.000269
343.2740	0.000871
343.9158	0.000449
344.5577	0.000470
345.1997	-0.000945
345.8418	0.000575
346.4840	0.000639
347.1264	0.001800
347.7689	0.001082
348.4115	0.000005
349.0542	-0.000164
349.6971	0.001441
350.3400	-0.000016
350.9831	0.001462
351.6263	0.000259
352.2696	0.000617
352.9131	0.000997
353.5566	0.001483
354.2003	0.001209
354.8441	-0.000670
355.4881	-0.000185
356.1321	-0.000058
356.7763	0.000639
357.4206	0.000829
358.0650	0.001019
358.7095	0.000406
359.3541	0.000617
359.9989	0.000406
360.6438	-0.000691
361.2888	0.002327
361.9339	0.000132
362.5791	0.001715
363.2245	0.001779
363.8699	0.001103
364.5155	0.000280
365.1612	0.000533
365.8071	0.000723
366.4530	-0.000248
367.0991	-0.000227
367.7453	0.000892
368.3916	-0.001008
369.0380	0.001504
369.6845	0.000427
370.3312	-0.000691
370.9780	0.000069
371.6249	0.002391
372.2719	0.000660
372.9190	0.001779
373.5663	-0.000375
374.2136	0.000111
374.8611	0.000111
375.5087	0.000681
376.1564	0.000850
376.8043	-0.000164
377.4522	-0.000079
378.1003	0.001462
378.7485	0.002222
379.3968	0.000617
380.0452	0.000047
380.6938	-0.000311
381.3424	-0.000354
381.9912	0.000997
382.6401	0.001082
383.2891	0.000976
383.9382	-0.000311
384.5875	0.001905
385.2368	0.001293
385.8863	0.000723
386.5359	0.000427
387.1856	0.000829
387.8355	0.001462
388.4854	0.000997
389.1355	0.002454
389.7856	-0.000375
390.4359	0.000216
391.0863	0.000934
391.7369	0.000955
392.3875	0.001209
393.0383	0.000069
393.6891	0.001884
394.3401	0.001863
394.9912	0.002686
395.6425	0.001863
396.2938	0.003847
396.9453	0.003932
397.5968	0.005177
398.2485	0.004016
398.9003	0.004122
399.5522	0.004607
400.2043	0.005621
400.8564	0.006001
401.5087	0.005051
402.1610	0.004903
402.8135	0.007119
403.4661	0.007436
404.1189	0.006338
404.7717	0.007309
405.4246	0.008428
406.0777	0.008555
406.7309	0.008660
407.3842	0.009716
408.0376	0.010814
408.6911	0.009273
409.3448	0.008808
409.9985	0.010455
410.6524	0.011130
411.3064	0.010835
411.9605	0.011320
412.6147	0.012017
413.2690	0.012545
413.9234	0.012967
414.5780	0.012883
415.2326	0.012861
415.8874	0.013136
416.5423	0.013917
417.1973	0.012439
417.8524	0.014508
418.5077	0.014930
419.1630	0.016809
419.8185	0.015711
420.4741	0.015901
421.1298	0.018477
421.7856	0.020292
422.4415	0.019765
423.0975	0.019849
423.7536	0.019638
424.4099	0.017527
425.0663	0.018540
425.7228	0.018181
426.3793	0.016619
427.0361	0.019321
427.6929	0.018836
428.3498	0.018941
429.0068	0.018941
429.6640	0.023417
430.3213	0.023121
430.9787	0.021770
431.6362	0.019786
432.2938	0.020123
432.9515	0.018857
433.6093	0.021707
434.2673	0.022277
434.9253	0.023775
435.5835	0.021580
436.2418	0.022593
436.9001	0.022488
437.5586	0.021939
438.2173	0.023058
438.8760	0.021137
439.5348	0.021432
440.1938	0.022171
440.8528	0.022424
441.5120	0.027238
442.1713	0.024915
442.8307	0.026562
443.4902	0.027596
444.1498	0.027681
444.8095	0.024894
445.4694	0.023797
446.1293	0.023522
446.7894	0.024810
447.4496	0.025485
448.1098	0.023501
448.7702	0.021580
449.4307	0.021770
450.0914	0.023290
450.7521	0.023797
451.4129	0.018793
452.0739	0.021327
452.7349	0.019511
453.3961	0.019701
454.0574	0.017822
454.7188	0.018266
455.3803	0.018772
456.0419	0.018857
456.7036	0.016915
457.3654	0.018245
458.0274	0.016999
458.6894	0.019427
459.3516	0.017210
460.0138	0.018941
460.6762	0.015521
461.3387	0.017105
462.0013	0.014191
462.6640	0.015162
463.3268	0.014888
463.9897	0.014867
464.6528	0.015732
465.3159	0.014909
465.9792	0.015521
466.6425	0.013073
467.3060	0.013326
467.9696	0.014909
468.6333	0.012123
469.2970	0.012334
469.9610	0.010772
470.6250	0.007795
471.2891	0.010750
471.9533	0.009399
472.6177	0.007014
473.2821	0.009632
473.9467	0.009737
474.6113	0.009526
475.2761	0.009484
475.9410	0.008682
476.6060	0.008703
477.2711	0.008302
477.9363	0.007837
478.6016	0.007162
479.2670	0.006338
479.9325	0.007204
480.5982	0.008112
481.2639	0.007394
481.9298	0.006824
482.5957	0.006444
483.2618	0.007668
483.9280	0.005198
484.5943	0.007309
485.2606	0.008112
485.9271	0.017675
486.5937	0.014339
487.2605	0.008893
487.9273	0.007394
488.5942	0.005958
489.2612	0.005642
489.9284	0.005008
490.5956	0.005874
491.2630	0.005410
491.9304	0.005853
492.5980	0.004080
493.2657	0.003573
493.9334	0.003320
494.6013	0.003531
495.2693	0.003974
495.9374	0.003615
496.6056	0.004840
497.2739	0.004016
497.9423	0.003657
498.6109	0.004333
499.2795	0.004101
499.9482	0.003742
500.6171	0.002876
501.2860	0.003868
501.9551	0.003256
502.6242	0.003320
503.2935	0.003488
503.9628	0.003847
504.6323	0.003932
505.3019	0.003256
505.9716	0.003784
506.6414	0.003742
507.3113	0.002897
507.9813	0.003615
508.6514	0.002918
509.3216	0.003657
509.9919	0.004206
510.6623	0.003467
511.3329	0.002454
512.0035	0.004945
512.6742	0.003868
513.3451	0.002137
514.0160	0.002982
514.6871	0.001652
515.3582	0.003108
516.0295	0.003531
516.7008	0.003510
517.3723	0.003277
518.0439	0.003108
518.7155	0.002686
519.3873	0.004544
520.0592	0.004671
520.7312	0.002053
521.4033	0.005177
522.0755	0.005135
522.7478	0.002412
523.4202	0.003953
524.0927	0.004227
524.7653	0.001969
525.4380	0.004037
526.1108	0.004016
526.7837	0.005431
527.4568	0.004122
528.1299	0.005325
528.8031	0.004755
529.4765	0.004523
530.1499	0.004840
530.8234	0.005916
531.4971	0.005198
532.1708	0.005072
532.8447	0.006444
533.5186	0.008660
534.1927	0.006528
534.8668	0.007225
535.5411	0.008724
536.2155	0.006634
536.8899	0.006444
537.5645	0.008006
538.2392	0.008660
538.9139	0.012587
539.5888	0.009104
540.2638	0.010349
540.9389	0.009948
541.6140	0.011743
542.2893	0.011489
542.9647	0.013643
543.6402	0.012313
544.3158	0.015732
544.9915	0.015606
545.6673	0.015416
546.3432	0.014487
547.0192	0.016556
547.6953	0.016957
548.3715	0.017717
549.0478	0.019173
549.7242	0.017653
550.4007	0.019701
551.0773	0.018540
551.7540	0.016704
552.4308	0.022277
553.1077	0.021179
553.7847	0.025507
554.4618	0.019385
555.1390	0.022488
555.8163	0.024704
556.4937	0.025211
557.1712	0.025654
557.8488	0.025612
558.5266	0.025401
559.2044	0.026351
559.8823	0.025971
560.5603	0.030087
561.2384	0.033106
561.9166	0.033106
562.5949	0.032980
563.2733	0.032811
563.9519	0.035471
564.6305	0.039313
565.3092	0.040073
565.9880	0.038954
566.6669	0.039629
567.3459	0.048221
568.0250	0.053182
568.7043	0.062998
569.3836	0.073469
570.0630	0.094558
570.7425	0.100849
571.4221	0.118856
572.1018	0.134182
572.7816	0.115521
573.4615	0.131860
574.1415	0.154469
574.8216	0.164961
575.5018	0.166333
576.1821	0.152759
576.8626	0.172181
577.5431	0.188584
578.2237	0.233147
578.9044	0.197534
579.5851	0.192827
580.2660	0.204543
580.9470	0.196204
581.6281	0.308743
582.3093	0.293312
582.9906	0.231817
583.6720	0.190631
584.3535	0.191771
585.0351	0.216491
585.7167	0.223458
586.3985	0.198125
587.0804	0.205155
587.7624	0.222824
588.4445	0.196584
589.1266	0.171484
589.8089	0.159114
590.4913	0.146975
591.1737	0.127997
591.8563	0.129285
592.5389	0.146279
593.2217	0.197914
593.9046	0.188014
594.5875	0.167051
595.2705	0.196352
595.9537	0.170788
596.6369	0.142056
597.3203	0.147651
598.0037	0.142626
598.6872	0.151007
599.3709	0.180921
600.0546	0.180203
600.7384	0.178957
601.4223	0.179633
602.1064	0.160190
602.7905	0.169669
603.4747	0.186029
604.1590	0.170513
604.8434	0.157573
605.5279	0.159979
606.2125	0.170344
606.8972	0.154934
607.5819	0.156897
608.2668	0.148580
608.9518	0.139523
609.6369	0.128757
610.3220	0.150859
611.0073	0.137982
611.6927	0.135808
612.3781	0.132050
613.0637	0.131121
613.7493	0.125042
614.4351	0.124429
615.1209	0.125084
615.8068	0.128630
616.4929	0.111088
617.1790	0.108407
617.8652	0.111151
618.5515	0.100934
619.2379	0.091054
619.9244	0.093313
620.6110	0.092299
621.2977	0.075897
621.9845	0.077818
622.6714	0.083433
623.3584	0.089027
624.0454	0.084890
624.7326	0.090020
625.4199	0.084383
626.1072	0.078641
626.7947	0.068804
627.4822	0.072730
628.1698	0.062745
628.8576	0.060360
629.5454	0.062323
630.2333	0.059473
630.9213	0.055420
631.6094	0.052000
632.2976	0.052042
632.9859	0.044316
633.6743	0.043936
634.3628	0.040706
635.0514	0.042247
635.7400	0.042986
636.4288	0.046976
637.1177	0.045688
637.8066	0.041698
638.4957	0.042585
639.1848	0.040389
639.8740	0.036512
640.5633	0.036926
641.2528	0.034871
641.9423	0.031193
642.6319	0.030873
643.3216	0.029869
644.0113	0.028611
644.7012	0.025116
645.3912	0.029189
646.0812	0.028200
646.7714	0.026074
647.4616	0.024732
648.1520	0.031166
648.8424	0.031739
649.5329	0.033649
650.2236	0.030622
650.9143	0.027247
651.6051	0.030383
652.2960	0.031992
652.9870	0.033529
653.6780	0.033692
654.3692	0.034696
655.0605	0.064137
655.7518	0.943112
656.4433	1.000000
657.1348	0.858273
657.8264	0.529239
658.5181	0.404937
659.2099	0.332857
659.9018	0.100811
660.5938	0.033318
661.2859	0.023637
661.9781	0.022342
662.6704	0.022555
663.3627	0.021350
664.0552	0.020843
664.7477	0.025323
665.4403	0.024510
666.1330	0.025352
666.8259	0.020745
667.5188	0.023858
668.2117	0.020506
668.9048	0.021327
669.5980	0.022424
670.2913	0.022847
670.9846	0.021432
671.6781	0.029053
672.3716	0.032895
673.0652	0.033170
673.7589	0.031544
674.4527	0.027216
675.1466	0.026076
675.8406	0.025232
676.5347	0.026309
677.2288	0.024873
677.9231	0.028926
678.6174	0.030615
679.3119	0.032283
680.0064	0.036231
680.7010	0.034436
681.3957	0.034795
682.0905	0.032072
682.7854	0.030277
683.4803	0.032494
684.1754	0.032367
684.8705	0.039165
685.5658	0.044105
686.2611	0.045794
686.9565	0.041001
687.6520	0.042817
688.3476	0.038532
689.0433	0.035745
689.7390	0.036083
690.4349	0.035766
691.1308	0.033254
691.8269	0.036991
692.5230	0.038785
693.2192	0.038954
693.9155	0.037814
694.6119	0.033212
695.3083	0.035829
696.0049	0.029560
696.7016	0.036801
697.3983	0.037835
698.0951	0.037983
698.7920	0.037624
699.4890	0.033803
700.1861	0.032346
700.8833	0.031206
701.5806	0.029264
702.2779	0.031671
702.9753	0.027955
703.6729	0.030552
704.3705	0.030193
705.0682	0.024198
705.7660	0.024155
706.4638	0.029454
707.1618	0.037181
707.8599	0.038996
708.5580	0.039566
709.2562	0.035449
709.9545	0.034098
710.6529	0.036336
711.3514	0.033338
712.0500	0.027364
712.7486	0.030425
713.4474	0.032262
714.1462	0.036969
714.8451	0.033528
715.5441	0.034056
716.2432	0.031692
716.9424	0.028779
717.6416	0.028546
718.3410	0.029243
719.0404	0.028420
719.7399	0.029391
720.4395	0.027512
721.1392	0.031037
721.8390	0.029264
722.5388	0.026879
723.2388	0.027364
723.9388	0.030932
724.6389	0.027998
725.3391	0.031270
726.0394	0.033001
726.7398	0.035238
727.4403	0.031375
728.1408	0.036019
728.8414	0.033972
729.5421	0.036104
730.2429	0.035829
730.9438	0.043788
731.6448	0.042479
732.3458	0.042015
733.0470	0.044632
733.7482	0.046300
734.4495	0.054533
735.1509	0.046743
735.8524	0.047377
736.5539	0.046807
737.2556	0.048749
737.9573	0.043492
738.6591	0.040980
739.3610	0.045899
740.0630	0.045055
740.7651	0.041297
741.4672	0.035576
742.1695	0.035407
742.8718	0.034246
743.5742	0.030277
744.2767	0.029792
744.9792	0.030256
745.6819	0.027681
746.3846	0.028441
747.0874	0.030763
747.7903	0.032156
748.4933	0.029264
749.1964	0.033444
749.8995	0.034605
750.6028	0.040326
751.3061	0.038722
752.0095	0.041909
752.7130	0.037624
753.4166	0.037877
754.1202	0.042395
754.8239	0.042331
755.5278	0.041529
756.2317	0.046511
756.9356	0.051219
757.6397	0.058840
758.3438	0.055863
759.0481	0.054491
759.7524	0.059557
760.4568	0.064075
761.1613	0.060507
761.8658	0.052443
762.5705	0.047567
763.2752	0.050691
763.9800	0.050818
764.6849	0.057468
765.3898	0.057425
766.0949	0.050100
766.8000	0.042965
767.5052	0.037835
768.2105	0.046532
768.9159	0.048686
769.6214	0.046258
770.3269	0.046912
771.0325	0.049087
771.7382	0.045941
772.4440	0.041086
773.1499	0.039925
773.8558	0.038236
774.5618	0.035133
775.2679	0.030172
775.9741	0.027533
776.6804	0.026858
777.3868	0.025908
778.0932	0.025675
778.7997	0.027575
779.5063	0.032726
780.2130	0.028694
780.9197	0.031439
781.6265	0.034964
782.3335	0.036378
783.0405	0.032895
783.7475	0.034225
784.4547	0.031249
785.1619	0.029623
785.8692	0.031607
786.5766	0.028293
787.2841	0.030299
787.9917	0.030235
788.6993	0.030911
789.4070	0.029560
790.1148	0.027111
790.8227	0.025908
791.5306	0.024852
792.2387	0.023438
792.9468	0.023417
793.6550	0.023670
794.3632	0.031016
795.0716	0.033254
795.7800	0.029137
796.4885	0.025422
797.1971	0.020144
797.9058	0.021453
798.6145	0.022783
799.3233	0.023987
800.0322	0.021622
800.7412	0.019997
801.4503	0.019722
802.1594	0.016492
802.8686	0.017970
803.5779	0.020166
804.2873	0.018181
804.9968	0.017189
805.7063	0.018836
806.4159	0.024303
807.1256	0.022889
807.8354	0.023353
808.5452	0.023016
809.2551	0.023417
809.9651	0.021496
810.6752	0.020778
811.3853	0.019786
812.0956	0.018308
812.8059	0.015205
813.5163	0.017252
814.2267	0.019448
814.9373	0.018435
815.6479	0.014445
816.3586	0.014740
817.0694	0.015268
817.7802	0.014846
818.4912	0.014761
819.2022	0.012207
819.9133	0.013051
820.6244	0.015944
821.3357	0.015500
822.0470	0.013980
822.7584	0.012608
823.4698	0.012101
824.1814	0.010582
824.8930	0.011721
825.6047	0.014065
826.3165	0.012313
827.0283	0.015268
827.7402	0.012313
828.4522	0.011426
829.1643	0.013115
829.8765	0.012080
830.5887	0.009969
831.3010	0.010096
832.0134	0.008471
832.7259	0.009632
833.4384	0.010434
834.1510	0.011152
834.8637	0.009843
835.5765	0.009695
836.2893	0.010328
837.0022	0.008893
837.7152	0.009822
838.4283	0.005642
839.1414	0.007879
839.8546	0.009463
840.5679	0.006887
841.2813	0.007119
841.9947	0.005768
842.7082	0.007732
843.4218	0.005621
844.1355	0.006444
844.8492	0.006359
845.5631	0.005262
846.2770	0.006127
846.9909	0.005177
847.7050	0.005431
848.4191	0.005346
849.1333	0.003890
849.8475	0.004861
850.5619	0.005515
851.2763	0.005156
851.9908	0.005600
852.7053	0.008639
853.4200	0.011785
854.1347	0.013833
854.8495	0.015690
855.5643	0.011933
856.2792	0.011658
856.9942	0.011363
857.7093	0.010603
858.4245	0.011173
859.1397	0.009737
859.8550	0.008829
860.5704	0.008534
861.2858	0.008027
862.0013	0.005895
862.7169	0.006275
863.4326	0.007014
864.1483	0.005684
864.8642	0.005663
865.5800	0.006233
866.2960	0.005410
867.0120	0.006528
867.7281	0.006507
868.4443	0.005832
869.1606	0.004987
869.8769	0.004882
870.5933	0.003425
871.3097	0.007288
872.0263	0.004502
872.7429	0.005811
873.4596	0.006697
874.1763	0.006359
874.8932	0.006169
875.6101	0.008048
876.3270	0.004333
877.0441	0.007035
877.7612	0.006022
878.4784	0.006613
879.1957	0.006549
879.9130	0.008428
880.6304	0.007563
881.3479	0.007056
882.0654	0.006972
882.7831	0.006528
883.5007	0.007077
884.2185	0.005705
884.9363	0.006043
885.6542	0.006803
886.3722	0.007331
887.0903	0.004818
887.8084	0.007499
888.5266	0.004776
889.2448	0.006571
889.9632	0.005410
890.6816	0.004502
891.4001	0.005093
892.1186	0.005431
892.8372	0.004122
893.5559	0.006317
894.2747	0.004903
894.9935	0.004544
895.7124	0.005642
896.4314	0.005600
897.1504	0.003911
897.8695	0.005874
898.5887	0.005747
899.3079	0.003932
900.0272	0.004312
900.7466	0.004248
901.4661	0.004058
902.1856	0.004692
902.9052	0.004840
903.6249	0.004840
904.3446	0.004270
905.0644	0.006296
905.7843	0.004692
906.5043	0.005177
907.2243	0.003193
907.9444	0.003974
908.6645	0.004650
909.3847	0.004080
910.1050	0.003383
910.8254	0.004333
911.5458	0.003235
912.2663	0.004248
912.9869	0.003256
913.7075	0.005177
914.4283	0.003362
915.1490	0.003488
915.8699	0.002032
916.5908	0.004080
917.3118	0.005937
918.0328	0.006043
918.7539	0.003932
919.4751	0.005304
920.1964	0.003045
920.9177	0.004607
921.6391	0.002391
922.3606	0.003362
923.0821	0.002433
923.8037	0.003383
924.5254	0.003193
925.2471	0.002581
925.9689	0.003108
926.6908	0.003066
927.4127	0.003510
928.1347	0.003763
928.8568	0.003172
929.5789	0.003024
930.3011	0.001694
931.0234	0.001969
931.7457	0.002370
932.4681	0.003383
933.1906	0.002222
933.9131	0.001040
934.6358	0.002602
935.3584	0.001990
936.0812	0.001779
936.8040	0.002686
937.5269	0.002560
938.2498	0.001884
938.9728	0.001631
939.6959	0.001926
940.4190	0.001757
941.1422	0.000491
941.8655	0.001905
942.5889	0.002053
943.3123	0.001694
944.0357	-0.000037
944.7593	0.001103
945.4829	-0.000902
946.2066	0.001905
946.9303	0.000976
947.6541	0.000491
948.3780	0.000301
949.1019	0.001462
949.8259	0.002032
950.5500	0.001061
951.2741	0.001736
951.9983	0.001546
952.7226	0.001504
953.4469	0.002412
954.1713	0.000829
954.8958	0.001757
955.6203	0.000554
956.3449	0.001145
957.0696	0.000406
957.7943	0.001399
958.5191	-0.000607
959.2439	0.000807
959.9688	0.001715
960.6938	0.001567
961.4189	-0.000501
962.1440	0.000216
962.8692	0.001061
963.5944	0.001040
964.3197	0.000280
965.0451	0.000765
965.7705	-0.000100
966.4960	0.001166
967.2216	0.000660
967.9472	0.001990
968.6729	0.000554
969.3987	0.000533
970.1245	0.000934
970.8504	0.001736
971.5763	0.002032
972.3023	0.001082
973.0284	0.000723
973.7545	0.001905
974.4807	0.001040
975.2070	0.000617
975.9333	0.000069
976.6597	0.000090
977.3862	-0.000311
978.1127	-0.000691
978.8393	0.001145
979.5659	0.000617
980.2926	0.000427
981.0194	0.001399
981.7462	0.000237
982.4731	0.001546
983.2001	-0.000037
983.9271	0.001377
984.6542	0.001504
985.3814	0.000237
986.1086	0.000554
986.8358	0.000871
987.5632	-0.000248
988.2906	-0.000037
989.0180	0.000554
989.7456	0.001145
990.4732	0.000617
991.2008	0.001209
991.9285	-0.000776
992.6563	0.001082
993.3841	0.000301
994.1120	0.000871
994.8400	-0.000924
995.5680	0.000406
996.2961	-0.000649
997.0242	0.000681
997.7524	-0.000776
998.4807	0.001166
999.2090	-0.000459
999.9374	0.000216
1000.67	0.000807
1001.39	0.000533
1002.12	0.000259
1002.85	0.000216
1003.58	0.000364
1004.31	0.001377
1005.04	-0.000290
1005.77	0.000301
1006.5	-0.000480
1007.22	0.000090
1007.95	0.000765
1008.68	0.000850
1009.41	0.001061
1010.14	0.000533
1010.87	0.000111
1011.6	0.001124
1012.33	0.000702
1013.06	0.000216
1013.79	0.000195
1014.52	-0.000290
1015.25	0.000765
1015.98	-0.000628
1016.71	0.000744
1017.44	0.000280
1018.17	0.000723
1018.9	-0.000058
1019.63	0.001082
1020.36	0.000111
1021.09	0.000343
1021.82	-0.001261
1022.55	0.000026
1023.03	0.000280