File: Auto_Polymerization/Data/UV_VIS_Spectra/MRG-061-F-2_spectra_while_stopped/spectrum_2025-06-19_13-00-40.txt
# Wavelength (nm)	Intensity (a.u.)
197.7802	0.000410
198.3922	-0.000012
199.0044	0.000832
199.6168	-0.000857
200.2292	0.000874
200.8418	0.000980
201.4546	0.001086
202.0674	0.000663
202.6805	0.000832
203.2936	0.000114
203.9069	0.001550
204.5203	0.000030
205.1338	0.001613
205.7475	0.000283
206.3614	0.000959
206.9753	0.000135
207.5894	0.000727
208.2036	-0.000033
208.8180	0.000790
209.4325	-0.000984
210.0471	-0.000160
210.6618	-0.000392
211.2767	0.000558
211.8918	-0.000899
212.5069	-0.000772
213.1222	-0.000097
213.7376	0.001233
214.3532	-0.000287
214.9689	0.001233
215.5847	0.000262
216.2007	0.000093
216.8168	-0.000435
217.4330	0.001064
218.0494	0.001001
218.6659	0.000389
219.2825	0.000769
219.8992	-0.000118
220.5161	-0.000984
221.1332	0.000706
221.7503	-0.001089
222.3676	-0.000202
222.9850	-0.000519
223.6026	0.001297
224.2203	-0.000751
224.8381	0.001381
225.4561	-0.000350
226.0742	0.001001
226.6924	0.000241
227.3107	0.000558
227.9292	-0.000287
228.5478	-0.000456
229.1666	0.001571
229.7855	0.000537
230.4045	0.000135
231.0236	0.000410
231.6429	-0.001300
232.2623	0.000199
232.8818	0.000051
233.5015	0.001782
234.1213	0.000853
234.7413	-0.000836
235.3613	-0.000266
235.9815	0.000241
236.6018	0.000072
237.2223	0.000473
237.8429	-0.000772
238.4636	0.000304
239.0845	-0.000582
239.7055	-0.000688
240.3266	0.000558
240.9478	0.000093
241.5692	-0.000962
242.1907	0.001276
242.8124	-0.000709
243.4341	0.000389
244.0560	0.000030
244.6781	0.001381
245.3002	-0.000604
245.9225	0.000811
246.5449	0.000917
247.1675	0.000874
247.7902	-0.000350
248.4130	0.000811
249.0359	0.000304
249.6590	0.000199
250.2822	0.000896
250.9056	0.000917
251.5290	-0.000857
252.1526	0.000621
252.7763	0.000516
253.4002	0.001001
254.0242	0.000473
254.6483	0.001592
255.2725	0.000579
255.8969	0.000853
256.5214	0.000326
257.1460	0.000304
257.7708	0.000220
258.3957	0.001381
259.0207	0.000093
259.6459	0.001149
260.2711	-0.001047
260.8965	0.000874
261.5221	-0.000012
262.1477	-0.000160
262.7735	0.000642
263.3995	0.000030
264.0255	0.000389
264.6517	-0.000350
265.2780	-0.000878
265.9044	0.000368
266.5310	0.000009
267.1577	0.001043
267.7845	-0.001406
268.4114	0.000473
269.0385	0.000199
269.6657	0.001170
270.2931	-0.000646
270.9205	-0.000055
271.5481	-0.000245
272.1758	-0.000223
272.8037	-0.000392
273.4316	-0.000435
274.0597	0.001445
274.6880	0.000874
275.3163	0.001001
275.9448	0.000832
276.5734	0.000853
277.2022	-0.000118
277.8310	-0.000625
278.4600	0.000874
279.0891	0.000009
279.7184	0.000135
280.3477	0.000917
280.9772	0.000706
281.6069	0.000917
282.2366	-0.000266
282.8665	-0.000266
283.4965	0.000157
284.1266	0.000199
284.7569	0.001423
285.3873	0.000157
286.0178	0.001529
286.6484	-0.000730
287.2792	0.001529
287.9101	-0.001554
288.5411	0.000347
289.1723	-0.000181
289.8035	0.000621
290.4349	-0.000097
291.0665	-0.000646
291.6981	-0.000688
292.3299	-0.000012
292.9618	-0.000392
293.5938	-0.000139
294.2260	0.000537
294.8582	0.000642
295.4906	-0.000266
296.1232	0.000600
296.7558	-0.001068
297.3886	0.000684
298.0215	-0.000055
298.6545	0.001381
299.2877	-0.000688
299.9210	-0.000582
300.5544	-0.000561
301.1879	0.000009
301.8215	0.000220
302.4553	0.001107
303.0892	-0.000836
303.7233	0.000558
304.3574	-0.000371
304.9917	-0.000118
305.6261	0.000114
306.2606	0.000473
306.8953	0.000790
307.5301	0.000769
308.1650	-0.000920
308.8000	-0.000519
309.4351	0.000009
310.0704	-0.000392
310.7058	0.000030
311.3413	-0.000392
311.9770	0.000135
312.6127	0.000684
313.2486	-0.000794
313.8846	-0.000245
314.5208	-0.000055
315.1570	-0.000181
315.7934	-0.000118
316.4299	-0.000055
317.0666	0.000663
317.7033	-0.000076
318.3402	-0.000392
318.9772	0.001297
319.6143	0.001930
320.2516	-0.000055
320.8890	-0.000287
321.5265	0.000790
322.1641	0.001761
322.8018	0.000579
323.4397	-0.000350
324.0777	0.000938
324.7158	0.000389
325.3540	0.001381
325.9924	-0.000540
326.6308	0.000874
327.2694	0.000537
327.9082	0.000494
328.5470	0.000347
329.1860	0.000896
329.8251	-0.000181
330.4643	0.000410
331.1036	0.000769
331.7431	0.000304
332.3826	0.000832
333.0223	0.001043
333.6622	-0.000667
334.3021	0.000896
334.9422	-0.000055
335.5823	0.000917
336.2227	0.000537
336.8631	-0.001237
337.5036	-0.000033
338.1443	0.001339
338.7851	0.000769
339.4260	0.000853
340.0670	0.000663
340.7082	0.000347
341.3495	0.001466
341.9909	0.000706
342.6324	0.000874
343.2740	0.000832
343.9158	0.000769
344.5577	0.000030
345.1997	0.000832
345.8418	-0.000055
346.4840	-0.000519
347.1264	0.000811
347.7689	-0.000751
348.4115	0.001191
349.0542	-0.000266
349.6971	0.000199
350.3400	-0.000477
350.9831	0.000917
351.6263	0.000051
352.2696	0.000706
352.9131	0.000304
353.5566	-0.000392
354.2003	0.000494
354.8441	0.000917
355.4881	0.000241
356.1321	-0.000413
356.7763	0.000220
357.4206	0.001635
358.0650	-0.000920
358.7095	0.001592
359.3541	0.000748
359.9989	0.000347
360.6438	0.002479
361.2888	0.001740
361.9339	-0.000920
362.5791	-0.000730
363.2245	0.000326
363.8699	0.000494
364.5155	0.000896
365.1612	0.001318
365.8071	0.000135
366.4530	0.000368
367.0991	0.000769
367.7453	0.000326
368.3916	0.000748
369.0380	0.000178
369.6845	0.000896
370.3312	-0.000920
370.9780	0.000473
371.6249	0.000135
372.2719	0.000494
372.9190	-0.000266
373.5663	0.001761
374.2136	-0.000477
374.8611	0.000304
375.5087	-0.001110
376.1564	0.001043
376.8043	-0.000202
377.4522	0.000959
378.1003	-0.000582
378.7485	-0.001026
379.3968	0.000663
380.0452	0.001381
380.6938	0.001508
381.3424	0.000832
381.9912	-0.000055
382.6401	-0.000287
383.2891	-0.000012
383.9382	0.001592
384.5875	0.001001
385.2368	-0.000097
385.8863	-0.000413
386.5359	-0.000498
387.1856	0.000030
387.8355	0.000093
388.4854	0.000410
389.1355	-0.000582
389.7856	0.000748
390.4359	0.000157
391.0863	0.001635
391.7369	0.000663
392.3875	0.002141
393.0383	0.000874
393.6891	0.002986
394.3401	0.001064
394.9912	0.002796
395.6425	0.001930
396.2938	0.003324
396.9453	0.003049
397.5968	0.002965
398.2485	0.004147
398.9003	0.004844
399.5522	0.004105
400.2043	0.004105
400.8564	0.002500
401.5087	0.005604
402.1610	0.003598
402.8135	0.006744
403.4661	0.003598
404.1189	0.005287
404.7717	0.006280
405.4246	0.008539
406.0777	0.005456
406.7309	0.007293
407.3842	0.006997
408.0376	0.006195
408.6911	0.008412
409.3448	0.008644
409.9985	0.008116
410.6524	0.008602
411.3064	0.008919
411.9605	0.009489
412.6147	0.009552
413.2690	0.009024
413.9234	0.011220
414.5780	0.011157
415.2326	0.009827
415.8874	0.010080
416.5423	0.009721
417.1973	0.012529
417.8524	0.013353
418.5077	0.011664
419.1630	0.013733
419.8185	0.013036
420.4741	0.014957
421.1298	0.015337
421.7856	0.017301
422.4415	0.015654
423.0975	0.017069
423.7536	0.018167
424.4099	0.016435
425.0663	0.015992
425.7228	0.018082
426.3793	0.014810
427.0361	0.015485
427.6929	0.017343
428.3498	0.018378
429.0068	0.016098
429.6640	0.022157
430.3213	0.018462
430.9787	0.021017
431.6362	0.018589
432.2938	0.018483
432.9515	0.017702
433.6093	0.018906
434.2673	0.019032
434.9253	0.020764
435.5835	0.019349
436.2418	0.017956
436.9001	0.020088
437.5586	0.021144
438.2173	0.019898
438.8760	0.022685
439.5348	0.021524
440.1938	0.020025
440.8528	0.021080
441.5120	0.025535
442.1713	0.022643
442.8307	0.024100
443.4902	0.023677
444.1498	0.025134
444.8095	0.022453
445.4694	0.023888
446.1293	0.023276
446.7894	0.022284
447.4496	0.024079
448.1098	0.021144
448.7702	0.021608
449.4307	0.021376
450.0914	0.021988
450.7521	0.019877
451.4129	0.018357
452.0739	0.020278
452.7349	0.019581
453.3961	0.018378
454.0574	0.017723
454.7188	0.016963
455.3803	0.016900
456.0419	0.018230
456.7036	0.018779
457.3654	0.016773
458.0274	0.016858
458.6894	0.018547
459.3516	0.015591
460.0138	0.016836
460.6762	0.015549
461.3387	0.015675
462.0013	0.012297
462.6640	0.013353
463.3268	0.014493
463.9897	0.015232
464.6528	0.014577
465.3159	0.014218
465.9792	0.014514
466.6425	0.012445
467.3060	0.012529
467.9696	0.011431
468.6333	0.010523
469.2970	0.009637
469.9610	0.008919
470.6250	0.009383
471.2891	0.009045
471.9533	0.008475
472.6177	0.008919
473.2821	0.008898
473.9467	0.008771
474.6113	0.008518
475.2761	0.008518
475.9410	0.006829
476.6060	0.008855
477.2711	0.006575
477.9363	0.006449
478.6016	0.007420
479.2670	0.008222
479.9325	0.006744
480.5982	0.008307
481.2639	0.006554
481.9298	0.005688
482.5957	0.007272
483.2618	0.006934
483.9280	0.004886
484.5943	0.007420
485.2606	0.006807
485.9271	0.017787
486.5937	0.014324
487.2605	0.009806
487.9273	0.008307
488.5942	0.005097
489.2612	0.004971
489.9284	0.005646
490.5956	0.003894
491.2630	0.004337
491.9304	0.004527
492.5980	0.004443
493.2657	0.004337
493.9334	0.005942
494.6013	0.004189
495.2693	0.005963
495.9374	0.003134
496.6056	0.005139
497.2739	0.003809
497.9423	0.003556
498.6109	0.004189
499.2795	0.004781
499.9482	0.004105
500.6171	0.003767
501.2860	0.003915
501.9551	0.003535
502.6242	0.003218
503.2935	0.004590
503.9628	0.003830
504.6323	0.002754
505.3019	0.002268
505.9716	0.003936
506.6414	0.004654
507.3113	0.001128
507.9813	0.003366
508.6514	0.003134
509.3216	0.002500
509.9919	0.004274
510.6623	0.003303
511.3329	0.004358
512.0035	0.003091
512.6742	0.003661
513.3451	0.003450
514.0160	0.003218
514.6871	0.001233
515.3582	0.003873
516.0295	0.002817
516.7008	0.002711
517.3723	0.003640
518.0439	0.002564
518.7155	0.001064
519.3873	0.003704
520.0592	0.002521
520.7312	0.003429
521.4033	0.002838
522.0755	0.003725
522.7478	0.003852
523.4202	0.003683
524.0927	0.004654
524.7653	0.003598
525.4380	0.004105
526.1108	0.002901
526.7837	0.004949
527.4568	0.003598
528.1299	0.003661
528.8031	0.005794
529.4765	0.006090
530.1499	0.005731
530.8234	0.004147
531.4971	0.004717
532.1708	0.006068
532.8447	0.005182
533.5186	0.007673
534.1927	0.006976
534.8668	0.008264
535.5411	0.005836
536.2155	0.008539
536.8899	0.007504
537.5645	0.008011
538.2392	0.011241
538.9139	0.010946
539.5888	0.010545
540.2638	0.008285
540.9389	0.010777
541.6140	0.011727
542.2893	0.010861
542.9647	0.013205
543.6402	0.011410
544.3158	0.014408
544.9915	0.014049
545.6673	0.014430
546.3432	0.013437
547.0192	0.014577
547.6953	0.017934
548.3715	0.017808
549.0478	0.018631
549.7242	0.017048
550.4007	0.017111
551.0773	0.017892
551.7540	0.017639
552.4308	0.021482
553.1077	0.020531
553.7847	0.023171
554.4618	0.021693
555.1390	0.023234
555.8163	0.025176
556.4937	0.025472
557.1712	0.024353
557.8488	0.025662
558.5266	0.023023
559.2044	0.022769
559.8823	0.025979
560.5603	0.031046
561.2384	0.032038
561.9166	0.033939
562.5949	0.032672
563.2733	0.033369
563.9519	0.034720
564.6305	0.036177
565.3092	0.036599
565.9880	0.038204
566.6669	0.039977
567.3459	0.046016
568.0250	0.052772
568.7043	0.061323
569.3836	0.071416
570.0630	0.093311
570.7425	0.099940
571.4221	0.115417
572.1018	0.132244
572.7816	0.111933
573.4615	0.131358
574.1415	0.149537
574.8216	0.161677
575.5018	0.167652
576.1821	0.153759
576.8626	0.171474
577.5431	0.184353
578.2237	0.227911
578.9044	0.190223
579.5851	0.188787
580.2660	0.202933
580.9470	0.196916
581.6281	0.304174
582.3093	0.289690
582.9906	0.229685
583.6720	0.189716
584.3535	0.195185
585.0351	0.215728
585.7167	0.230973
586.3985	0.196979
587.0804	0.201434
587.7624	0.220310
588.4445	0.191321
589.1266	0.165224
589.8089	0.160748
590.4913	0.141725
591.1737	0.129521
591.8563	0.128887
592.5389	0.148819
593.2217	0.193052
593.9046	0.179962
594.5875	0.158024
595.2705	0.188449
595.9537	0.170123
596.6369	0.140268
597.3203	0.145018
598.0037	0.140817
598.6872	0.150233
599.3709	0.175908
600.0546	0.174451
600.7384	0.177069
601.4223	0.178125
602.1064	0.161149
602.7905	0.164717
603.4747	0.185831
604.1590	0.173353
604.8434	0.152619
605.5279	0.159481
606.2125	0.166597
606.8972	0.152598
607.5819	0.154097
608.2668	0.146475
608.9518	0.138579
609.6369	0.127346
610.3220	0.143730
611.0073	0.138156
611.6927	0.135285
612.3781	0.127705
613.0637	0.128930
613.7493	0.126333
614.4351	0.124939
615.1209	0.121835
615.8068	0.131125
616.4929	0.112039
617.1790	0.107035
617.8652	0.107119
618.5515	0.102221
619.2379	0.089890
619.9244	0.094176
620.6110	0.096224
621.2977	0.075005
621.9845	0.079692
622.6714	0.082817
623.3584	0.090524
624.0454	0.083176
624.7326	0.088687
625.4199	0.083767
626.1072	0.078447
626.7947	0.068037
627.4822	0.070951
628.1698	0.064131
628.8576	0.060648
629.5454	0.061598
630.2333	0.060521
630.9213	0.056995
631.6094	0.053490
632.2976	0.051020
632.9859	0.046649
633.6743	0.044749
634.3628	0.042215
635.0514	0.040146
635.7400	0.040885
636.4288	0.045593
637.1177	0.043778
637.8066	0.039766
638.4957	0.043714
639.1848	0.039048
639.8740	0.037351
640.5633	0.036936
641.2528	0.035769
641.9423	0.030862
642.6319	0.030144
643.3216	0.029575
644.0113	0.030528
644.7012	0.026665
645.3912	0.026756
646.0812	0.024129
646.7714	0.027616
647.4616	0.025472
648.1520	0.027968
648.8424	0.032336
649.5329	0.032952
650.2236	0.031788
650.9143	0.028679
651.6051	0.030031
652.2960	0.028850
652.9870	0.033389
653.6780	0.031600
654.3692	0.032671
655.0605	0.067074
655.7518	0.944649
656.4433	1.000000
657.1348	0.860107
657.8264	0.522724
658.5181	0.402796
659.2099	0.328325
659.9018	0.097214
660.5938	0.030986
661.2859	0.024427
661.9781	0.022858
662.6704	0.022563
663.3627	0.021378
664.0552	0.022352
664.7477	0.020942
665.4403	0.024017
666.1330	0.022966
666.8259	0.020478
667.5188	0.022389
668.2117	0.021141
668.9048	0.021714
669.5980	0.020848
670.2913	0.021228
670.9846	0.022601
671.6781	0.027795
672.3716	0.033537
673.0652	0.033854
673.7589	0.028407
674.4527	0.028745
675.1466	0.027056
675.8406	0.026844
676.5347	0.026000
677.2288	0.023698
677.9231	0.028407
678.6174	0.029336
679.3119	0.030497
680.0064	0.035501
680.7010	0.033347
681.3957	0.036979
682.0905	0.032566
682.7854	0.031109
683.4803	0.031067
684.1754	0.035015
684.8705	0.037486
685.5658	0.046269
686.2611	0.041645
686.9565	0.041941
687.6520	0.045066
688.3476	0.040294
689.0433	0.033136
689.7390	0.038267
690.4349	0.033559
691.1308	0.037254
691.8269	0.036557
692.5230	0.036219
693.2192	0.037528
693.9155	0.035501
694.6119	0.031109
695.3083	0.037739
696.0049	0.030962
696.7016	0.034129
697.3983	0.038731
698.0951	0.039133
698.7920	0.038014
699.4890	0.034699
700.1861	0.033094
700.8833	0.031489
701.5806	0.029927
702.2779	0.028787
702.9753	0.028027
703.6729	0.029209
704.3705	0.028449
705.0682	0.025092
705.7660	0.025768
706.4638	0.028914
707.1618	0.036134
707.8599	0.035248
708.5580	0.036240
709.2562	0.034340
709.9545	0.033284
710.6529	0.034952
711.3514	0.032630
712.0500	0.030096
712.7486	0.028238
713.4474	0.032397
714.1462	0.034171
714.8451	0.034804
715.5441	0.036029
716.2432	0.029695
716.9424	0.030877
717.6416	0.028534
718.3410	0.028386
719.0404	0.030096
719.7399	0.030729
720.4395	0.028386
721.1392	0.031447
721.8390	0.028322
722.5388	0.029631
723.2388	0.027858
723.9388	0.027689
724.6389	0.028808
725.3391	0.030877
726.0394	0.033094
726.7398	0.035966
727.4403	0.031996
728.1408	0.034129
728.8414	0.034994
729.5421	0.035818
730.2429	0.035987
730.9438	0.044031
731.6448	0.043841
732.3458	0.040716
733.0470	0.043355
733.7482	0.044770
734.4495	0.052118
735.1509	0.048254
735.8524	0.046544
736.5539	0.048254
737.2556	0.047979
737.9573	0.043355
738.6591	0.040062
739.3610	0.046881
740.0630	0.044348
740.7651	0.039808
741.4672	0.035522
742.1695	0.035058
742.8718	0.037127
743.5742	0.031743
744.2767	0.029167
744.9792	0.029104
745.6819	0.028449
746.3846	0.030497
747.0874	0.029357
747.7903	0.031363
748.4933	0.028914
749.1964	0.030180
749.8995	0.036705
750.6028	0.040822
751.3061	0.036282
752.0095	0.038605
752.7130	0.035184
753.4166	0.035543
754.1202	0.042616
754.8239	0.041561
755.5278	0.044390
756.2317	0.046185
756.9356	0.052392
757.6397	0.061471
758.3438	0.056910
759.0481	0.054884
759.7524	0.058790
760.4568	0.063202
761.1613	0.062252
761.8658	0.054989
762.5705	0.050724
763.2752	0.049837
763.9800	0.051231
764.6849	0.059275
765.3898	0.057818
766.0949	0.046987
766.8000	0.042975
767.5052	0.037042
768.2105	0.041307
768.9159	0.048085
769.6214	0.044707
770.3269	0.045446
771.0325	0.050703
771.7382	0.045995
772.4440	0.042194
773.1499	0.039470
773.8558	0.038584
774.5618	0.032418
775.2679	0.030708
775.9741	0.026654
776.6804	0.026844
777.3868	0.024775
778.0932	0.026127
778.7997	0.028301
779.5063	0.032587
780.2130	0.027541
780.9197	0.031764
781.6265	0.037338
782.3335	0.035522
783.0405	0.034593
783.7475	0.034424
784.4547	0.031743
785.1619	0.028534
785.8692	0.026908
786.5766	0.028217
787.2841	0.026084
787.9917	0.030392
788.6993	0.031025
789.4070	0.031891
790.1148	0.026127
790.8227	0.026359
791.5306	0.025578
792.2387	0.025725
792.9468	0.022368
793.6550	0.025092
794.3632	0.029378
795.0716	0.033812
795.7800	0.029885
796.4885	0.025050
797.1971	0.020510
797.9058	0.023086
798.6145	0.022242
799.3233	0.023150
800.0322	0.021650
800.7412	0.019286
801.4503	0.019455
802.1594	0.017174
802.8686	0.016478
803.5779	0.020637
804.2873	0.015992
804.9968	0.018209
805.7063	0.018103
806.4159	0.023276
807.1256	0.022009
807.8354	0.023044
808.5452	0.022432
809.2551	0.021988
809.9651	0.019645
810.6752	0.021038
811.3853	0.019455
812.0956	0.018019
812.8059	0.015105
813.5163	0.015612
814.2267	0.019560
814.9373	0.018779
815.6479	0.014113
816.3586	0.013205
817.0694	0.015084
817.7802	0.014641
818.4912	0.013437
819.2022	0.013585
819.9133	0.012149
820.6244	0.015000
821.3357	0.016288
822.0470	0.013247
822.7584	0.014239
823.4698	0.009869
824.1814	0.011474
824.8930	0.012170
825.6047	0.013733
826.3165	0.010038
827.0283	0.012255
827.7402	0.013838
828.4522	0.011051
829.1643	0.014915
829.8765	0.013374
830.5887	0.009088
831.3010	0.008180
832.0134	0.008475
832.7259	0.009362
833.4384	0.008307
834.1510	0.010333
834.8637	0.009531
835.5765	0.011516
836.2893	0.008201
837.0022	0.007504
837.7152	0.006596
838.4283	0.008877
839.1414	0.006681
839.8546	0.008792
840.5679	0.007462
841.2813	0.008032
841.9947	0.006786
842.7082	0.005203
843.4218	0.006364
844.1355	0.006090
844.8492	0.005710
845.5631	0.005815
846.2770	0.005836
846.9909	0.005836
847.7050	0.005963
848.4191	0.003577
849.1333	0.005034
849.8475	0.006047
850.5619	0.004886
851.2763	0.005541
851.9908	0.003915
852.7053	0.009510
853.4200	0.013036
854.1347	0.015168
854.8495	0.013163
855.5643	0.012762
856.2792	0.013120
856.9942	0.011410
857.7093	0.010017
858.4245	0.010946
859.1397	0.009109
859.8550	0.009658
860.5704	0.007209
861.2858	0.008180
862.0013	0.005245
862.7169	0.006195
863.4326	0.007420
864.1483	0.006913
864.8642	0.005562
865.5800	0.005583
866.2960	0.005583
867.0120	0.005182
867.7281	0.007272
868.4443	0.006153
869.1606	0.003894
869.8769	0.005245
870.5933	0.005372
871.3097	0.006744
872.0263	0.003873
872.7429	0.005604
873.4596	0.006111
874.1763	0.006216
874.8932	0.005182
875.6101	0.006575
876.3270	0.004759
877.0441	0.004675
877.7612	0.005604
878.4784	0.005688
879.1957	0.008708
879.9130	0.007568
880.6304	0.007926
881.3479	0.008053
882.0654	0.007589
882.7831	0.005477
883.5007	0.007103
884.2185	0.007103
884.9363	0.006047
885.6542	0.004590
886.3722	0.006005
887.0903	0.005245
887.8084	0.005878
888.5266	0.004506
889.2448	0.005287
889.9632	0.005308
890.6816	0.005013
891.4001	0.005583
892.1186	0.006681
892.8372	0.003936
893.5559	0.005287
894.2747	0.004464
894.9935	0.003197
895.7124	0.004464
896.4314	0.005034
897.1504	0.004675
897.8695	0.004358
898.5887	0.005266
899.3079	0.004738
900.0272	0.003260
900.7466	0.004949
901.4661	0.004548
902.1856	0.004232
902.9052	0.003852
903.6249	0.003303
904.3446	0.005118
905.0644	0.005224
905.7843	0.005498
906.5043	0.006026
907.2243	0.004253
907.9444	0.004105
908.6645	0.002880
909.3847	0.003978
910.1050	0.002226
910.8254	0.004316
911.5458	0.003894
912.2663	0.003155
912.9869	0.003324
913.7075	0.004443
914.4283	0.002965
915.1490	0.003577
915.8699	0.003091
916.5908	0.003788
917.3118	0.004844
918.0328	0.005055
918.7539	0.003049
919.4751	0.004295
920.1964	0.004020
920.9177	0.004337
921.6391	0.002395
922.3606	0.002564
923.0821	0.003134
923.8037	0.002775
924.5254	0.002310
925.2471	0.002965
925.9689	0.003999
926.6908	0.004337
927.4127	0.002923
928.1347	0.003070
928.8568	0.002458
929.5789	0.002901
930.3011	0.001740
931.0234	0.003493
931.7457	0.001782
932.4681	0.002669
933.1906	0.002564
933.9131	0.002901
934.6358	0.003345
935.3584	0.003049
936.0812	0.002331
936.8040	0.000642
937.5269	0.001571
938.2498	0.000558
938.9728	0.001339
939.6959	0.002205
940.4190	0.001930
941.1422	0.002479
941.8655	0.001888
942.5889	-0.000055
943.3123	0.000537
944.0357	0.001466
944.7593	0.001233
945.4829	-0.000350
946.2066	0.001656
946.9303	0.000389
947.6541	0.002247
948.3780	0.000516
949.1019	0.000853
949.8259	0.000051
950.5500	0.002690
951.2741	0.000980
951.9983	0.001867
952.7226	0.001782
953.4469	0.003113
954.1713	0.001445
954.8958	0.002416
955.6203	0.000199
956.3449	0.001888
957.0696	0.001402
957.7943	0.000959
958.5191	0.001445
959.2439	0.000790
959.9688	0.000241
960.6938	0.000959
961.4189	0.000410
962.1440	0.000473
962.8692	0.001043
963.5944	0.002078
964.3197	0.000600
965.0451	0.001867
965.7705	0.001297
966.4960	-0.000181
967.2216	0.001381
967.9472	0.000727
968.6729	0.000135
969.3987	0.001297
970.1245	-0.000899
970.8504	0.001276
971.5763	0.000410
972.3023	0.001064
973.0284	-0.000139
973.7545	0.000600
974.4807	0.000473
975.2070	0.002648
975.9333	0.001740
976.6597	-0.000625
977.3862	0.000410
978.1127	0.001381
978.8393	0.000199
979.5659	0.001487
980.2926	0.000853
981.0194	0.001402
981.7462	-0.000308
982.4731	0.000790
983.2001	0.000135
983.9271	-0.000181
984.6542	0.000220
985.3814	0.000516
986.1086	-0.000245
986.8358	0.000600
987.5632	0.001043
988.2906	-0.000033
989.0180	0.000410
989.7456	0.000093
990.4732	-0.000012
991.2008	0.000727
991.9285	-0.000435
992.6563	0.001212
993.3841	-0.001934
994.1120	-0.000055
994.8400	0.000220
995.5680	0.000072
996.2961	0.000326
997.0242	0.000516
997.7524	0.000537
998.4807	0.000114
999.2090	0.000769
999.9374	0.001001
1000.67	0.001719
1001.39	0.000516
1002.12	0.000452
1002.85	-0.000435
1003.58	0.001782
1004.31	0.000220
1005.04	0.000959
1005.77	0.000959
1006.5	0.001149
1007.22	-0.000582
1007.95	0.000853
1008.68	0.001993
1009.41	0.000917
1010.14	0.000009
1010.87	0.001043
1011.6	0.000853
1012.33	0.001170
1013.06	-0.000878
1013.79	0.000051
1014.52	0.000579
1015.25	0.000326
1015.98	0.000832
1016.71	0.000114
1017.44	-0.000371
1018.17	0.001255
1018.9	0.000410
1019.63	0.001086
1020.36	0.000051
1021.09	0.000283
1021.82	-0.000055
1022.55	-0.001005
1023.03	-0.000308