File: Auto_Polymerization/Data/UV_VIS_Spectra/MRG-061-F-2_spectra_while_stopped/spectrum_2025-06-19_11-23-30_absorbance.txt
# Wavelength	Absorbance
197.78 0.109144
198.392 2.682145
199.004 -0.285837
199.617 -0.207253
200.229 0.145830
200.842 2.902003
201.455 0.421552
202.067 2.760422
202.68 -0.097427
203.294 2.745075
203.907 -0.663173
204.52 0.326561
205.134 3.093772
205.748 -0.000902
206.361 -2.217484
206.975 -0.619348
207.589 -3.168497
208.204 3.152288
208.818 -0.731056
209.433 2.907949
210.047 -0.474351
210.662 0.256038
211.277 2.907949
211.892 -0.272809
212.507 0.609900
213.122 -0.461684
213.738 -0.036589
214.353 -3.204391
214.969 0.463557
215.585 0.127624
216.201 -0.189016
216.817 -0.364873
217.433 -0.458638
218.049 -2.158362
218.666 0.164658
219.282 0.410718
219.899 0.237041
220.516 -2.995196
221.133 2.902003
221.75 1.592490
222.368 2.913284
222.985 -3.162266
223.603 -0.050590
224.22 -0.010453
224.838 -0.302146
225.456 -0.099604
226.074 0.542552
226.692 -1.778151
227.311 3.111934
227.929 0.787470
228.548 3.108227
229.167 -1.255273
229.786 0.127990
230.405 1.963788
231.024 2.890421
231.643 0.075049
232.262 0.560792
232.882 2.599883
233.501 2.902003
234.121 -2.866287
234.741 -0.083095
235.361 3.122544
235.982 -0.468307
236.602 -2.827369
237.222 0.329952
237.843 -1.204120
238.464 0.032734
239.084 -2.465383
239.706 -0.360869
240.327 -0.384856
240.948 -0.171927
241.569 2.632457
242.191 3.206826
242.812 0.679226
243.434 0.447901
244.056 0.000000
244.678 0.216139
245.3 -0.852116
245.923 -0.060591
246.545 -0.286848
247.167 0.571920
247.79 0.589826
248.413 0.250525
249.036 3.030600
249.659 -0.039412
250.282 3.189490
250.906 2.480007
251.529 2.008600
252.153 0.304162
252.776 2.397940
253.4 -0.208012
254.024 2.872739
254.648 -0.109144
255.273 3.097604
255.897 -0.257159
256.521 0.669007
257.146 0.378256
257.771 0.000000
258.396 -0.046582
259.021 0.324557
259.646 0.069015
260.271 -0.022276
260.897 0.096910
261.522 1.234217
262.148 2.989895
262.774 2.907411
263.399 0.888763
264.026 0.618048
264.652 3.097604
265.278 0.981739
265.904 2.950851
266.531 2.294466
267.158 0.486855
267.784 -0.316059
268.411 -0.008997
269.038 2.123852
269.666 0.957072
270.293 -1.778151
270.921 -0.322159
271.548 2.691965
272.176 3.277609
272.804 3.021603
273.432 0.134645
274.06 0.209564
274.688 -0.026496
275.316 3.055378
275.945 1.057187
276.573 0.681744
277.202 -0.267645
277.831 0.055262
278.46 0.021693
279.089 -0.044431
279.718 0.672887
280.348 2.632457
280.977 0.713794
281.607 0.000000
282.237 -0.220940
282.866 2.791691
283.497 3.030600
284.127 -2.021189
284.757 0.756202
285.387 -2.784617
286.018 0.192842
286.648 -0.258141
287.279 -0.224558
287.91 2.621176
288.541 0.289621
289.172 -2.269513
289.803 -2.465383
290.435 -3.022016
291.067 0.082795
291.698 2.768638
292.33 0.825485
292.962 0.000000
293.594 0.419569
294.226 0.000000
294.858 -0.212537
295.491 0.000000
296.123 3.247728
296.756 0.787923
297.389 -0.208012
298.022 3.149219
298.654 0.627308
299.288 0.000000
299.921 3.234517
300.554 1.514105
301.188 0.335110
301.822 0.474318
302.455 -0.089070
303.089 0.088422
303.723 -0.184286
304.357 -0.250078
304.992 -0.294564
305.626 -0.065369
306.261 0.314756
306.895 0.000000
307.53 0.071123
308.165 -2.945961
308.8 0.764714
309.435 1.194977
310.07 0.172877
310.706 0.038835
311.341 0.746217
311.977 3.142702
312.613 -0.026180
313.249 3.332034
313.885 -0.043008
314.521 3.104828
315.157 0.563519
315.793 -0.200486
316.43 0.861474
317.067 1.872380
317.703 0.903290
318.34 3.097604
318.977 0.301506
319.614 0.214419
320.252 1.294812
320.889 -0.761217
321.526 0.560631
322.164 3.132580
322.802 3.327767
323.44 1.846369
324.078 3.558108
324.716 3.399154
325.354 0.391198
325.992 0.424289
326.631 0.458951
327.269 0.753272
327.908 0.230557
328.547 0.917357
329.186 3.564311
329.825 0.715776
330.464 0.528930
331.104 0.773652
331.743 0.607987
332.383 0.419473
333.022 0.768237
333.662 0.459854
334.302 1.422457
334.942 1.267120
335.582 1.423395
336.223 1.657637
336.863 0.891436
337.504 3.672098
338.144 1.061706
338.785 3.703205
339.426 3.712144
340.067 1.732788
340.708 0.769652
341.349 1.641361
341.991 0.494506
342.632 0.775082
343.274 0.598437
343.916 0.952288
344.558 2.108678
345.2 1.436544
345.842 1.206820
346.484 1.145799
347.126 1.136634
347.769 3.886321
348.411 0.700172
349.054 1.012271
349.697 3.921634
350.34 0.898851
350.983 0.816417
351.626 1.019410
352.27 0.896137
352.913 0.857839
353.557 3.994713
354.2 2.675626
354.844 1.372059
355.488 3.989138
356.132 0.587879
356.776 0.935310
357.421 0.983881
358.065 3.991935
358.709 4.012879
359.354 0.838675
359.999 3.957464
360.644 0.873932
361.289 1.340574
361.934 1.143036
362.579 4.062845
363.224 1.261829
363.87 2.437100
364.515 4.049102
365.161 1.615356
365.807 4.020403
366.453 1.142671
367.099 4.077622
367.745 0.971663
368.392 4.101850
369.038 1.574985
369.685 4.136974
370.331 1.131705
370.978 1.194176
371.625 1.073993
372.272 4.101128
372.919 1.048764
373.566 4.154637
374.214 2.389786
374.861 1.567434
375.509 1.103676
376.156 1.108845
376.804 4.234720
377.452 4.269816
378.1 1.757721
378.748 1.410935
379.397 1.030835
380.045 4.285760
380.694 2.061818
381.342 4.319959
381.991 1.729130
382.64 1.247432
383.289 1.346721
383.938 2.561320
384.587 3.093519
385.237 4.356332
385.886 1.274029
386.536 1.405831
387.186 1.534755
387.836 1.597016
388.485 1.144602
389.135 0.973266
389.786 1.295757
390.436 1.041798
391.086 0.919584
391.737 1.046517
392.387 0.995460
393.038 0.928777
393.689 0.636185
394.34 0.734995
394.991 0.875393
395.642 0.742332
396.294 0.644578
396.945 0.784045
397.597 0.551574
398.248 0.589576
398.9 0.576692
399.552 0.523886
400.204 0.484783
400.856 0.489476
401.509 0.457372
402.161 0.476386
402.813 0.366892
403.466 0.545014
404.119 0.449703
404.772 0.396687
405.425 0.411386
406.078 0.383762
406.731 0.365681
407.384 0.363259
408.038 0.339452
408.691 0.308667
409.345 0.306251
409.998 0.328004
410.652 0.310228
411.306 0.299360
411.961 0.273928
412.615 0.277302
413.269 0.259936
413.923 0.345961
414.578 0.241498
415.233 0.236631
415.887 0.242852
416.542 0.238860
417.197 0.240064
417.852 0.212547
418.508 0.218940
419.163 0.239774
419.818 0.245751
420.474 0.202832
421.13 0.214754
421.786 0.201525
422.442 0.226709
423.098 0.212457
423.754 0.221469
424.41 0.180633
425.066 0.224824
425.723 0.214753
426.379 0.218151
427.036 0.217132
427.693 0.247194
428.35 0.225806
429.007 0.186803
429.664 0.179684
430.321 0.195481
430.979 0.194119
431.636 0.178740
432.294 0.213682
432.952 0.223587
433.609 0.230949
434.267 0.220385
434.925 0.237941
435.584 0.230233
436.242 0.196212
436.9 0.243340
437.559 0.218892
438.217 0.233595
438.876 0.234728
439.535 0.218019
440.194 0.253030
440.853 0.271814
441.512 0.256624
442.171 0.256535
442.831 0.255266
443.49 0.247642
444.15 0.251161
444.81 0.279241
445.469 0.266435
446.129 0.258860
446.789 0.279844
447.45 0.285719
448.11 0.285259
448.77 0.284555
449.431 0.287085
450.091 0.286531
450.752 0.295665
451.413 0.327662
452.074 0.331184
452.735 0.326801
453.396 0.344365
454.057 0.347665
454.719 0.366389
455.38 0.372133
456.042 0.382227
456.704 0.321784
457.365 0.364053
458.027 0.377925
458.689 0.380464
459.352 0.379504
460.014 0.404120
460.676 0.451028
461.339 0.435652
462.001 0.490493
462.664 0.510883
463.327 0.480502
463.99 0.474325
464.653 0.469854
465.316 0.514713
465.979 0.538188
466.642 0.499716
467.306 0.554144
467.97 0.578588
468.633 0.571766
469.297 0.568076
469.961 0.593167
470.625 0.569782
471.289 0.621786
471.953 0.620061
472.618 0.624086
473.282 0.689269
473.947 0.665594
474.611 0.729592
475.276 0.753255
475.941 0.694123
476.606 0.670682
477.271 0.682703
477.936 0.770173
478.602 0.856884
479.267 0.763130
479.933 0.890445
480.598 0.856296
481.264 0.803894
481.93 0.828195
482.596 0.900877
483.262 0.883416
483.928 0.851066
484.594 0.878049
485.261 0.890626
485.927 0.981412
486.594 0.937446
487.26 0.930487
487.927 0.962329
488.594 1.091758
489.261 1.008248
489.928 0.901121
490.596 0.997553
491.263 1.037163
491.93 0.991038
492.598 1.010502
493.266 1.196427
493.933 0.947433
494.601 1.219122
495.269 1.133387
495.937 1.132776
496.606 1.069450
497.274 1.104644
497.942 1.050416
498.611 0.993108
499.279 1.208047
499.948 1.183996
500.617 1.034817
501.286 1.259991
501.955 1.332109
502.624 1.258144
503.293 1.058947
503.963 1.263907
504.632 1.272292
505.302 1.223226
505.972 1.072368
506.641 1.480153
507.311 1.025337
507.981 1.192981
508.651 1.189441
509.322 1.174587
509.992 1.187498
510.662 1.165119
511.333 1.251034
512.004 1.240170
512.674 1.139557
513.345 1.353302
514.016 1.215117
514.687 1.189513
515.358 0.996951
516.029 1.272056
516.701 1.001299
517.372 1.183775
518.044 1.078077
518.716 0.968589
519.387 0.994017
520.059 1.008192
520.731 1.294732
521.403 1.002122
522.076 0.872725
522.748 1.027105
523.42 1.034222
524.093 1.014965
524.765 0.943311
525.438 1.028793
526.111 0.935268
526.784 0.909402
527.457 1.027949
528.13 1.016882
528.803 0.813117
529.476 0.863739
530.15 0.860703
530.823 0.857527
531.497 0.853553
532.171 0.793861
532.845 0.802322
533.519 0.777823
534.193 0.666288
534.867 0.777829
535.541 0.742403
536.216 0.718289
536.89 0.753468
537.564 0.695882
538.239 0.660342
538.914 0.664885
539.589 0.661127
540.264 0.666224
540.939 0.566135
541.614 0.600618
542.289 0.612451
542.965 0.496958
543.64 0.562743
544.316 0.523509
544.991 0.505528
545.667 0.538909
546.343 0.482972
547.019 0.500402
547.695 0.445164
548.371 0.464171
549.048 0.416921
549.724 0.427275
550.401 0.353099
551.077 0.388422
551.754 0.394692
552.431 0.357058
553.108 0.380060
553.785 0.356375
554.462 0.361405
555.139 0.327450
555.816 0.313064
556.494 0.298733
557.171 0.324108
557.849 0.262247
558.527 0.249109
559.204 0.264897
559.882 0.233257
560.56 0.254322
561.238 0.216749
561.917 0.215629
562.595 0.255430
563.273 0.224679
563.952 0.188062
564.63 0.185805
565.309 0.162705
565.988 0.195564
566.667 0.180506
567.346 0.184165
568.025 0.152248
568.704 0.147901
569.384 0.145998
570.063 0.148734
570.742 0.122236
571.422 0.127670
572.102 0.130483
572.782 0.138513
573.462 0.125566
574.141 0.111928
574.822 0.110325
575.502 0.117651
576.182 0.118310
576.863 0.102473
577.543 0.097348
578.224 0.099757
578.904 0.086819
579.585 0.087331
580.266 0.080229
580.947 0.081303
581.628 0.078213
582.309 0.072500
582.991 0.058510
583.672 0.060043
584.354 0.054598
585.035 0.058546
585.717 0.066324
586.399 0.051985
587.08 0.049248
587.762 0.038899
588.444 0.048651
589.127 0.037869
589.809 0.048550
590.491 0.034740
591.174 0.044376
591.856 0.043616
592.539 0.040800
593.222 0.044530
593.905 0.046521
594.587 0.030469
595.27 0.037133
595.954 0.040318
596.637 0.043751
597.32 0.025147
598.004 0.029587
598.687 0.051043
599.371 0.037860
600.055 0.039854
600.738 0.026049
601.422 0.010155
602.106 0.032849
602.79 0.024559
603.475 0.025169
604.159 0.022410
604.843 0.029898
605.528 0.017330
606.212 0.010184
606.897 0.012399
607.582 0.018630
608.267 0.009684
608.952 0.012420
609.637 0.008873
610.322 0.019690
611.007 0.004325
611.693 0.009647
612.378 0.016137
613.064 0.008294
613.749 0.011557
614.435 0.014007
615.121 0.006808
615.807 0.010238
616.493 0.014774
617.179 0.009536
617.865 0.017633
618.552 -0.003295
619.238 0.013461
619.924 0.009291
620.611 0.007218
621.298 0.013456
621.985 0.009091
622.671 0.016614
623.358 0.007893
624.045 0.009787
624.733 0.004413
625.42 -0.010698
626.107 -0.006429
626.795 0.009535
627.482 -0.000455
628.17 -0.016305
628.858 -0.013037
629.545 -0.006662
630.233 0.006462
630.921 0.005407
631.609 0.009863
632.298 -0.006983
632.986 -0.001451
633.674 0.008754
634.363 0.000258
635.051 0.003792
635.74 -0.009786
636.429 -0.012024
637.118 0.011541
637.807 0.004899
638.496 0.009599
639.185 -0.029480
639.874 -0.010983
640.563 0.018646
641.253 -0.014927
641.942 -0.009030
642.632 -0.004173
643.322 0.002690
644.011 -0.016064
644.701 -0.022830
645.391 -0.045320
646.081 -0.017476
646.771 -0.015180
647.462 0.014575
648.152 0.002446
648.842 0.031671
649.533 0.012221
650.224 0.017452
650.914 -0.025770
651.605 -0.021464
652.296 -0.008057
652.987 -0.004297
653.678 -0.011937
654.369 0.018955
655.061 -0.003218
655.752 0.026062
656.443 0.001458
657.135 0.023560
657.826 0.016343
658.518 0.004010
659.21 -0.007987
659.902 -0.063512
660.594 0.003640
661.286 0.013254
661.978 -0.006119
662.67 -0.015494
663.363 -0.014857
664.055 -0.043539
664.748 -0.028962
665.44 0.044841
666.133 0.007275
666.826 0.019855
667.519 0.019947
668.212 -0.013329
668.905 -0.019166
669.598 -0.022167
670.291 -0.008524
670.985 -0.026386
671.678 0.017849
672.372 -0.016696
673.065 -0.011328
673.759 -0.030788
674.453 -0.025836
675.147 -0.012919
675.841 0.007545
676.535 -0.050626
677.229 -0.005652
677.923 -0.006293
678.617 -0.018963
679.312 0.002631
680.006 0.000221
680.701 0.004120
681.396 0.014085
682.091 0.003945
682.785 0.004920
683.48 -0.008016
684.175 0.009419
684.87 -0.001651
685.566 0.013237
686.261 0.047967
686.957 -0.016151
687.652 0.004893
688.348 0.020537
689.043 -0.001969
689.739 -0.024833
690.435 -0.016086
691.131 0.005201
691.827 0.009244
692.523 0.036060
693.219 -0.022417
693.915 -0.012682
694.612 -0.002729
695.308 0.022495
696.005 -0.001280
696.702 -0.008763
697.398 0.027547
698.095 0.021154
698.792 -0.007091
699.489 0.005329
700.186 0.002172
700.883 -0.018872
701.581 -0.030291
702.278 -0.006824
702.975 0.001707
703.673 0.028164
704.37 -0.000595
705.068 -0.042739
705.766 -0.017246
706.464 0.003330
707.162 -0.037664
707.86 0.054633
708.558 -0.015307
709.256 -0.002578
709.955 -0.019811
710.653 -0.028298
711.351 -0.064725
712.05 -0.022332
712.749 -0.004425
713.447 -0.036039
714.146 -0.013661
714.845 -0.006430
715.544 0.000646
716.243 -0.044083
716.942 0.000210
717.642 -0.007561
718.341 -0.001616
719.04 0.005178
719.74 -0.004267
720.439 -0.005031
721.139 0.013893
721.839 0.009396
722.539 0.017323
723.239 0.015809
723.939 -0.021527
724.639 0.022869
725.339 0.006608
726.039 -0.007380
726.74 0.008111
727.44 0.014448
728.141 -0.015504
728.841 -0.001626
729.542 -0.016228
730.243 -0.002789
730.944 0.039474
731.645 -0.001491
732.346 0.000951
733.047 0.025123
733.748 0.004555
734.449 0.008389
735.151 0.014216
735.852 -0.007159
736.554 0.018110
737.256 0.009414
737.957 -0.014439
738.659 -0.006924
739.361 -0.001816
740.063 -0.024934
740.765 -0.011956
741.467 0.026000
742.169 -0.045238
742.872 -0.032903
743.574 -0.001719
744.277 0.004712
744.979 0.009556
745.682 -0.001431
746.385 0.008268
747.087 -0.016976
747.79 0.004791
748.493 0.031286
749.196 0.007933
749.899 0.014163
750.603 0.006834
751.306 0.005004
752.01 -0.000268
752.713 -0.008367
753.417 -0.013526
754.12 0.007325
754.824 -0.008140
755.528 0.013871
756.232 0.005981
756.936 0.005908
757.64 0.008901
758.344 0.016789
759.048 0.010113
759.752 0.014144
760.457 0.009675
761.161 -0.002807
761.866 0.028083
762.571 0.010893
763.275 0.012539
763.98 0.023430
764.685 0.012552
765.39 0.008011
766.095 0.002298
766.8 -0.014601
767.505 0.010817
768.211 0.004997
768.916 0.005832
769.621 -0.006291
770.327 -0.008697
771.033 0.005516
771.738 0.017066
772.444 0.005584
773.15 -0.005421
773.856 0.033229
774.562 0.027353
775.268 -0.030870
775.974 -0.021611
776.68 0.016747
777.387 -0.028395
778.093 0.012960
778.8 0.008448
779.506 -0.005124
780.213 0.004283
780.92 0.038159
781.626 0.031881
782.333 0.003804
783.04 0.009019
783.747 0.011097
784.455 -0.000852
785.162 0.007705
785.869 0.000985
786.577 -0.022603
787.284 0.014663
787.992 0.004453
788.699 -0.000403
789.407 -0.006421
790.115 0.015911
790.823 -0.009042
791.531 -0.028985
792.239 -0.040228
792.947 -0.000042
793.655 0.006012
794.363 0.017142
795.072 0.012988
795.78 0.012408
796.489 0.008465
797.197 0.031378
797.906 0.042290
798.615 -0.030366
799.323 0.012054
800.032 0.060104
800.741 -0.000268
801.45 0.023320
802.159 0.063693
802.869 -0.027008
803.578 0.053802
804.287 -0.019308
804.997 -0.015224
805.706 -0.045059
806.416 0.042669
807.126 0.046325
807.835 -0.033411
808.545 0.016983
809.255 -0.011705
809.965 0.002728
810.675 -0.010614
811.385 -0.006473
812.096 -0.014515
812.806 -0.010956
813.516 -0.041544
814.227 0.034551
814.937 -0.043240
815.648 -0.041430
816.359 -0.049245
817.069 0.035604
817.78 -0.047178
818.491 -0.028911
819.202 -0.010498
819.913 0.005409
820.624 0.044745
821.336 0.090873
822.047 0.028477
822.758 -0.014441
823.47 0.027344
824.181 0.017549
824.893 -0.000669
825.605 0.028117
826.317 -0.000235
827.028 0.004533
827.74 0.039175
828.452 -0.010127
829.164 -0.053500
829.876 -0.015756
830.589 0.061415
831.301 0.035187
832.013 -0.106747
832.726 -0.008611
833.438 -0.002226
834.151 0.013216
834.864 0.060329
835.577 0.018884
836.289 0.065970
837.002 0.039380
837.715 -0.183774
838.428 -0.131701
839.141 0.096662
839.855 -0.011043
840.568 0.053359
841.281 -0.061090
841.995 -0.163114
842.708 -0.055689
843.422 0.078491
844.135 0.066502
844.849 -0.033432
845.563 -0.049907
846.277 0.011403
846.991 -0.046024
847.705 -0.134548
848.419 -0.037295
849.133 0.122279
849.847 0.019173
850.562 -0.115678
851.276 -0.101242
851.991 0.026763
852.705 -0.016113
853.42 0.030406
854.135 -0.021395
854.85 0.042574
855.564 -0.011970
856.279 0.006644
856.994 -0.032590
857.709 0.109139
858.424 -0.084485
859.14 -0.019789
859.855 -0.011801
860.57 0.011659
861.286 -0.074783
862.001 -0.044710
862.717 0.015469
863.433 -0.030048
864.148 -0.005386
864.864 -0.089171
865.58 -0.053233
866.296 0.014013
867.012 -0.023571
867.728 0.056151
868.444 0.082154
869.161 0.021492
869.877 -0.105092
870.593 -0.025193
871.31 -0.025065
872.026 -0.128830
872.743 0.020118
873.46 -0.035143
874.176 -0.039914
874.893 0.031602
875.61 -0.004867
876.327 0.061648
877.044 -0.072214
877.761 -0.108610
878.478 -0.020966
879.196 0.020457
879.913 -0.041473
880.63 0.059293
881.348 0.058237
882.065 0.106802
882.783 0.080002
883.501 -0.094351
884.218 -0.060859
884.936 -0.027807
885.654 -0.003476
886.372 -0.051973
887.09 0.059116
887.808 0.048567
888.527 -0.079507
889.245 0.022442
889.963 0.000618
890.682 -0.038116
891.4 -0.042072
892.119 0.005906
892.837 0.107425
893.556 0.105013
894.275 0.127197
894.994 -0.040581
895.712 0.077337
896.431 -0.066531
897.15 0.063499
897.87 0.056989
898.589 0.008784
899.308 -0.066373
900.027 -0.266274
900.747 0.020290
901.466 -0.019829
902.186 -0.003767
902.905 -0.041421
903.625 0.025766
904.345 -0.048244
905.064 0.355582
905.784 0.143692
906.504 0.000475
907.224 -0.014530
907.944 0.088567
908.664 -0.032302
909.385 0.017362
910.105 0.101868
910.825 -0.028888
911.546 0.129946
912.266 0.086038
912.987 -0.152340
913.707 -0.185387
914.428 -0.031580
915.149 0.031020
915.87 -0.017709
916.591 -0.085023
917.312 -0.052176
918.033 0.010403
918.754 0.013067
919.475 -0.135998
920.196 -0.140971
920.918 0.103586
921.639 0.144548
922.361 0.258278
923.082 0.066312
923.804 -0.031150
924.525 0.345879
925.247 -0.033708
925.969 -0.142167
926.691 0.235240
927.413 0.039531
928.135 -0.081514
928.857 -0.169782
929.579 0.330515
930.301 -0.111692
931.023 -0.139097
931.746 0.659729
932.468 0.256310
933.191 0.314569
933.913 -0.132949
934.636 -0.138385
935.358 -0.000269
936.081 0.113887
936.804 0.497465
937.527 0.145087
938.25 0.060698
938.973 0.131381
939.696 3.206826
940.419 -0.304851
941.142 -0.571482
941.865 0.183333
942.589 0.054196
943.312 0.428600
944.036 0.261150
944.759 0.054981
945.483 -0.197347
946.207 -0.248447
946.93 -0.687380
947.654 -0.074339
948.378 0.117929
949.102 -0.226886
949.826 -0.024539
950.55 -0.180866
951.274 -0.267776
951.998 -0.139514
952.723 -0.451757
953.447 -0.249895
954.171 -1.042729
954.896 -0.081284
955.62 0.097186
956.345 -0.148552
957.07 -0.370680
957.794 0.378273
958.519 0.024403
959.244 3.145818
959.969 -0.280103
960.694 -0.302075
961.419 -0.521429
962.144 -0.595089
962.869 2.719331
963.594 0.445996
964.32 -0.182154
965.045 -0.411212
965.77 -0.370489
966.496 -0.472385
967.222 2.833784
967.947 -0.361415
968.673 3.067443
969.399 -0.324627
970.125 -0.480190
970.85 2.710117
971.576 -0.669319
972.302 3.275081
973.028 0.151448
973.755 0.404429
974.481 0.278510
975.207 3.215373
975.933 -0.185319
976.66 0.924423
977.386 -0.157472
978.113 -0.515555
978.839 0.353128
979.566 -0.528867
980.293 1.417536
981.019 0.535332
981.746 -0.472965
982.473 0.056481
983.2 0.162970
983.927 0.171090
984.654 -0.129999
985.381 0.444552
986.109 0.000000
986.836 0.479001
987.563 -0.018628
988.291 -0.261593
989.018 0.797214
989.746 -0.539849
990.473 2.935507
991.201 0.279692
991.928 -2.217484
992.656 0.157346
993.384 3.021603
994.112 1.550907
994.84 -2.683047
995.568 -0.488301
996.296 2.827369
997.024 -1.100309
997.752 0.273094
998.481 -0.181093
999.209 -1.255273
999.937 0.409578
1000.67 2.907949
1001.39 -0.293943
1002.12 -0.095401
1002.85 -0.435799
1003.58 -3.369030
1004.31 -0.108038
1005.04 0.226821
1005.77 0.064572
1006.5 -0.295652
1007.22 -0.237209
1007.95 0.221332
1008.68 -0.174322
1009.41 -2.784617
1010.14 2.432969
1010.87 0.240448
1011.6 1.591065
1012.33 -0.058730
1013.06 -2.945961
1013.79 3.108227
1014.52 0.012440
1015.25 0.037970
1015.98 2.450249
1016.71 -0.675956
1017.44 -0.328128
1018.17 0.495328
1018.9 0.588633
1019.63 2.950851
1020.36 -0.068265
1021.09 0.473549
1021.82 0.000000
1022.55 0.351775
1023.03 2.812913