File: Auto_Polymerization/Data/UV_VIS_Spectra/MRG-061-F-2_spectra_while_stopped/spectrum_2025-06-19_10-56-36.txt
# Wavelength (nm)	Intensity (a.u.)
197.7802	0.000614
198.3922	-0.001434
199.0044	-0.001033
199.6168	-0.000252
200.2292	0.001163
200.8418	0.001100
201.4546	0.000635
202.0674	-0.000083
202.6805	0.000403
203.2936	0.000276
203.9069	0.000318
204.5203	0.000804
205.1338	0.000044
205.7475	0.000150
206.3614	0.001585
206.9753	-0.000822
207.5894	0.000614
208.2036	0.000466
208.8180	-0.000019
209.4325	-0.000357
210.0471	0.000318
210.6618	-0.000695
211.2767	0.000572
211.8918	-0.000737
212.5069	-0.000885
213.1222	-0.000674
213.7376	0.001332
214.3532	0.000551
214.9689	0.000044
215.5847	-0.001350
216.2007	0.001480
216.8168	0.001142
217.4330	0.000234
218.0494	-0.001455
218.6659	0.000572
219.2825	0.000255
219.8992	0.001226
220.5161	0.000382
221.1332	-0.000019
221.7503	0.000340
222.3676	0.000677
222.9850	-0.001138
223.6026	0.000424
224.2203	0.000002
224.8381	-0.000104
225.4561	0.000403
226.0742	-0.001350
226.6924	-0.001645
227.3107	0.001142
227.9292	-0.001160
228.5478	-0.000505
229.1666	0.000044
229.7855	0.001353
230.4045	0.000889
231.0236	0.000867
231.6429	0.000825
232.2623	-0.000674
232.8818	0.001416
233.5015	0.001733
234.1213	-0.000526
234.7413	0.000931
235.3613	0.000002
235.9815	-0.000336
236.6018	-0.000104
237.2223	0.000889
237.8429	0.000276
238.4636	0.000086
239.0845	0.000192
239.7055	0.001058
240.3266	0.000931
240.9478	0.000952
241.5692	-0.001434
242.1907	0.001712
242.8124	0.000065
243.4341	0.001015
244.0560	0.000614
244.6781	0.001058
245.3002	-0.000294
245.9225	0.000783
246.5449	0.000382
247.1675	-0.000231
247.7902	0.000044
248.4130	0.000150
249.0359	0.000487
249.6590	0.000466
250.2822	-0.000062
250.9056	0.000192
251.5290	-0.000357
252.1526	-0.000083
252.7763	0.000572
253.4002	-0.000399
254.0242	0.001015
254.6483	-0.000399
255.2725	0.000297
255.8969	-0.001223
256.5214	0.000804
257.1460	0.001543
257.7708	0.000424
258.3957	0.000255
259.0207	-0.000273
259.6459	0.000065
260.2711	0.001332
260.8965	0.001058
261.5221	-0.000062
262.1477	0.000044
262.7735	0.000487
263.3995	-0.002469
264.0255	0.000234
264.6517	0.001374
265.2780	-0.000885
265.9044	0.000677
266.5310	0.000530
267.1577	0.000741
267.7845	-0.000758
268.4114	0.000466
269.0385	0.000255
269.6657	0.001015
270.2931	0.000783
270.9205	0.000825
271.5481	-0.000991
272.1758	0.000340
272.8037	-0.001687
273.4316	-0.000484
274.0597	0.001438
274.6880	0.001079
275.3163	0.000445
275.9448	-0.000927
276.5734	-0.000526
277.2022	-0.000146
277.8310	0.000551
278.4600	0.000762
279.0891	-0.000843
279.7184	-0.000104
280.3477	-0.000801
280.9772	0.000002
281.6069	-0.000357
282.2366	0.000023
282.8665	-0.001181
283.4965	-0.000167
284.1266	0.000741
284.7569	-0.000442
285.3873	0.000509
286.0178	-0.001012
286.6484	-0.001138
287.2792	0.001184
287.9101	0.000171
288.5411	-0.000294
289.1723	-0.000294
289.8035	0.000276
290.4349	-0.000526
291.0665	0.000023
291.6981	-0.000273
292.3299	-0.000906
292.9618	0.001163
293.5938	0.000403
294.2260	0.000530
294.8582	0.000910
295.4906	-0.000231
296.1232	-0.001096
296.7558	-0.000611
297.3886	0.000424
298.0215	-0.000146
298.6545	0.000889
299.2877	0.000044
299.9210	0.000044
300.5544	0.000403
301.1879	-0.000083
301.8215	0.002198
302.4553	0.000150
303.0892	-0.000357
303.7233	-0.001223
304.3574	0.000023
304.9917	-0.000209
305.6261	0.000509
306.2606	0.000107
306.8953	0.000128
307.5301	-0.000273
308.1650	-0.000019
308.8000	0.000128
309.4351	0.000931
310.0704	0.000677
310.7058	-0.000273
311.3413	0.002029
311.9770	-0.000273
312.6127	0.000572
313.2486	-0.000948
313.8846	-0.001138
314.5208	-0.001181
315.1570	0.000614
315.7934	0.000593
316.4299	0.002388
317.0666	-0.000125
317.7033	0.000086
318.3402	0.000044
318.9772	-0.000273
319.6143	0.000002
320.2516	0.001079
320.8890	-0.000231
321.5265	0.000487
322.1641	0.000424
322.8018	0.000952
323.4397	0.001058
324.0777	-0.000378
324.7158	-0.000991
325.3540	0.001142
325.9924	0.000023
326.6308	-0.001497
327.2694	0.001459
327.9082	-0.000231
328.5470	0.000213
329.1860	0.000572
329.8251	0.000445
330.4643	-0.000083
331.1036	0.000931
331.7431	-0.000315
332.3826	-0.000336
333.0223	0.001628
333.6622	0.000150
334.3021	0.001839
334.9422	0.000340
335.5823	0.001290
336.2227	-0.000019
336.8631	-0.000758
337.5036	0.000086
338.1443	-0.000273
338.7851	0.001015
339.4260	0.001564
340.0670	0.000192
340.7082	-0.000864
341.3495	-0.000484
341.9909	0.000551
342.6324	-0.000589
343.2740	0.000340
343.9158	-0.000062
344.5577	0.000150
345.1997	0.000530
345.8418	0.000804
346.4840	-0.000209
347.1264	0.000509
347.7689	-0.000948
348.4115	0.000065
349.0542	0.000973
349.6971	0.001015
350.3400	-0.000209
350.9831	0.000487
351.6263	-0.000357
352.2696	0.000720
352.9131	0.000656
353.5566	0.001163
354.2003	0.000509
354.8441	0.001248
355.4881	0.001058
356.1321	0.001438
356.7763	0.000044
357.4206	-0.000146
358.0650	-0.000991
358.7095	-0.000104
359.3541	-0.000843
359.9989	0.001142
360.6438	-0.000273
361.2888	0.000487
361.9339	0.000466
362.5791	0.000318
363.2245	-0.000885
363.8699	0.001733
364.5155	0.000889
365.1612	0.000867
365.8071	0.000572
366.4530	0.000593
367.0991	-0.000970
367.7453	-0.000146
368.3916	-0.000294
369.0380	-0.000779
369.6845	0.000171
370.3312	0.001269
370.9780	-0.000273
371.6249	0.000699
372.2719	-0.000695
372.9190	0.000910
373.5663	-0.000589
374.2136	0.000804
374.8611	0.000044
375.5087	-0.000062
376.1564	0.000192
376.8043	0.001353
377.4522	0.000150
378.1003	0.000086
378.7485	0.000530
379.3968	0.000213
380.0452	0.000551
380.6938	-0.000674
381.3424	0.000846
381.9912	-0.000019
382.6401	0.000466
383.2891	0.000276
383.9382	0.001036
384.5875	0.000593
385.2368	-0.000589
385.8863	0.001987
386.5359	0.000741
387.1856	0.000783
387.8355	0.002113
388.4854	0.002155
389.1355	0.001987
389.7856	0.003085
390.4359	0.002599
391.0863	0.003697
391.7369	0.003211
392.3875	0.005893
393.0383	0.005365
393.6891	0.007645
394.3401	0.006927
394.9912	0.008954
395.6425	0.008173
396.2938	0.010580
396.9453	0.008469
397.5968	0.014043
398.2485	0.013515
398.9003	0.016197
399.5522	0.014867
400.2043	0.015352
400.8564	0.016999
401.5087	0.017464
402.1610	0.017020
402.8135	0.019575
403.4661	0.018921
404.1189	0.019406
404.7717	0.020040
405.4246	0.022109
406.0777	0.022975
406.7309	0.021856
407.3842	0.020884
408.0376	0.021138
408.6911	0.024748
409.3448	0.022003
409.9985	0.023397
410.6524	0.024157
411.3064	0.024664
411.9605	0.025804
412.6147	0.025825
413.2690	0.027134
413.9234	0.025846
414.5780	0.024495
415.2326	0.026374
415.8874	0.025487
416.5423	0.027979
417.1973	0.024601
417.8524	0.025656
418.5077	0.028275
419.1630	0.028528
419.8185	0.029246
420.4741	0.031906
421.1298	0.032117
421.7856	0.034398
422.4415	0.032075
423.0975	0.033427
423.7536	0.031590
424.4099	0.030893
425.0663	0.030576
425.7228	0.028465
426.3793	0.027747
427.0361	0.028655
427.6929	0.029457
428.3498	0.029563
429.0068	0.028950
429.6640	0.034039
430.3213	0.035221
430.9787	0.032307
431.6362	0.030344
432.2938	0.030069
432.9515	0.026057
433.6093	0.031611
434.2673	0.031146
434.9253	0.028823
435.5835	0.028422
436.2418	0.029056
436.9001	0.030470
437.5586	0.029499
438.2173	0.027261
438.8760	0.029541
439.5348	0.029288
440.1938	0.029140
440.8528	0.027514
441.5120	0.033828
442.1713	0.034630
442.8307	0.030344
443.4902	0.032983
444.1498	0.034271
444.8095	0.032350
445.4694	0.030682
446.1293	0.028971
446.7894	0.030851
447.4496	0.028507
448.1098	0.028275
448.7702	0.028000
449.4307	0.028718
450.0914	0.027726
450.7521	0.028718
451.4129	0.027873
452.0739	0.026923
452.7349	0.022193
453.3961	0.021961
454.0574	0.020652
454.7188	0.019702
455.3803	0.021708
456.0419	0.023313
456.7036	0.020610
457.3654	0.019681
458.0274	0.020441
458.6894	0.021898
459.3516	0.020504
460.0138	0.019955
460.6762	0.019216
461.3387	0.018752
462.0013	0.016957
462.6640	0.017949
463.3268	0.017210
463.9897	0.015416
464.6528	0.017590
465.3159	0.017020
465.9792	0.017168
466.6425	0.015416
467.3060	0.014296
467.9696	0.014254
468.6333	0.013663
469.2970	0.012248
469.9610	0.011193
470.6250	0.010876
471.2891	0.009588
471.9533	0.008933
472.6177	0.010411
473.2821	0.011404
473.9467	0.009651
474.6113	0.009398
475.2761	0.009862
475.9410	0.009862
476.6060	0.007793
477.2711	0.007624
477.9363	0.007307
478.6016	0.007582
479.2670	0.007856
479.9325	0.005280
480.5982	0.008617
481.2639	0.007814
481.9298	0.007603
482.5957	0.007286
483.2618	0.006125
483.9280	0.006991
484.5943	0.007561
485.2606	0.005766
485.9271	0.021370
486.5937	0.014149
487.2605	0.011214
487.9273	0.006273
488.5942	0.006653
489.2612	0.004457
489.9284	0.005090
490.5956	0.005365
491.2630	0.004922
491.9304	0.004182
492.5980	0.004879
493.2657	0.003401
493.9334	0.003718
494.6013	0.003085
495.2693	0.003359
495.9374	0.004351
496.6056	0.004119
497.2739	0.003000
497.9423	0.004415
498.6109	0.004309
499.2795	0.003739
499.9482	0.003042
500.6171	0.002937
501.2860	0.003465
501.9551	0.003042
502.6242	0.004288
503.2935	0.004161
503.9628	0.003359
504.6323	0.002916
505.3019	0.003042
505.9716	0.003655
506.6414	0.003021
507.3113	0.002641
507.9813	0.003106
508.6514	0.003085
509.3216	0.003359
509.9919	0.002578
510.6623	0.003887
511.3329	0.003676
512.0035	0.002958
512.6742	0.002894
513.3451	0.002472
514.0160	0.003655
514.6871	0.003866
515.3582	0.001585
516.0295	0.003380
516.7008	0.002409
517.3723	0.003042
518.0439	0.003802
518.7155	0.002367
519.3873	0.002810
520.0592	0.002641
520.7312	0.003887
521.4033	0.002662
522.0755	0.003275
522.7478	0.003422
523.4202	0.003127
524.0927	0.003992
524.7653	0.003739
525.4380	0.003718
526.1108	0.004056
526.7837	0.003296
527.4568	0.002683
528.1299	0.004182
528.8031	0.004330
529.4765	0.006716
530.1499	0.004373
530.8234	0.005112
531.4971	0.003655
532.1708	0.004204
532.8447	0.004161
533.5186	0.006484
534.1927	0.006906
534.8668	0.007139
535.5411	0.007371
536.2155	0.008342
536.8899	0.007012
537.5645	0.007286
538.2392	0.007941
538.9139	0.008511
539.5888	0.009989
540.2638	0.010981
540.9389	0.010559
541.6140	0.011530
542.2893	0.010855
542.9647	0.012776
543.6402	0.012797
544.3158	0.015563
544.9915	0.015901
545.6673	0.014698
546.3432	0.015268
547.0192	0.015141
547.6953	0.017738
548.3715	0.017907
549.0478	0.018604
549.7242	0.018393
550.4007	0.017949
551.0773	0.018857
551.7540	0.019068
552.4308	0.019850
553.1077	0.023460
553.7847	0.023883
554.4618	0.021919
555.1390	0.022827
555.8163	0.024769
556.4937	0.027155
557.1712	0.026290
557.8488	0.027092
558.5266	0.024432
559.2044	0.023587
559.8823	0.025973
560.5603	0.030217
561.2384	0.033258
561.9166	0.034715
562.5949	0.031737
563.2733	0.035158
563.9519	0.036889
564.6305	0.040035
565.3092	0.039550
565.9880	0.039318
566.6669	0.043034
567.3459	0.050340
568.0250	0.054731
568.7043	0.063937
569.3836	0.079520
570.0630	0.100952
570.7425	0.106209
571.4221	0.128295
572.1018	0.137269
572.7816	0.121708
573.4615	0.138832
574.1415	0.158637
574.8216	0.177282
575.5018	0.174790
576.1821	0.156083
576.8626	0.184735
577.5431	0.196792
578.2237	0.241872
578.9044	0.205238
579.5851	0.199980
580.2660	0.210031
580.9470	0.205702
581.6281	0.322045
582.3093	0.307814
582.9906	0.240394
583.6720	0.201606
584.3535	0.199600
585.0351	0.229541
585.7167	0.239465
586.3985	0.204372
587.0804	0.211741
587.7624	0.229837
588.4445	0.201923
589.1266	0.181273
589.8089	0.166450
590.4913	0.150762
591.1737	0.131822
591.8563	0.132898
592.5389	0.154541
593.2217	0.203232
593.9046	0.197974
594.5875	0.168730
595.2705	0.199347
595.9537	0.174664
596.6369	0.148122
597.3203	0.151733
598.0037	0.146518
598.6872	0.153908
599.3709	0.183616
600.0546	0.184545
600.7384	0.179309
601.4223	0.184524
602.1064	0.168393
602.7905	0.173186
603.4747	0.188262
604.1590	0.174790
604.8434	0.153866
605.5279	0.163008
606.2125	0.175001
606.8972	0.157096
607.5819	0.159250
608.2668	0.153422
608.9518	0.142590
609.6369	0.133152
610.3220	0.151796
611.0073	0.137354
611.6927	0.138768
612.3781	0.128359
613.0637	0.129267
613.7493	0.127366
614.4351	0.128464
615.1209	0.126268
615.8068	0.133215
616.4929	0.116830
617.1790	0.111763
617.8652	0.112333
618.5515	0.102789
619.2379	0.091366
619.9244	0.094111
620.6110	0.095652
621.2977	0.076416
621.9845	0.082244
622.6714	0.084989
623.3584	0.090732
624.0454	0.085665
624.7326	0.092442
625.4199	0.083025
626.1072	0.078063
626.7947	0.072257
627.4822	0.071074
628.1698	0.065817
628.8576	0.058659
629.5454	0.063600
630.2333	0.061171
630.9213	0.056589
631.6094	0.051860
632.2976	0.050994
632.9859	0.043773
633.6743	0.043688
634.3628	0.041915
635.0514	0.043899
635.7400	0.040247
636.4288	0.047067
637.1177	0.044617
637.8066	0.041978
638.4957	0.042041
639.1848	0.039698
639.8740	0.038219
640.5633	0.037186
641.2528	0.035890
641.9423	0.030899
642.6319	0.029422
643.3216	0.031535
644.0113	0.029847
644.7012	0.026993
645.3912	0.027242
646.0812	0.024769
646.7714	0.026343
647.4616	0.024423
648.1520	0.031059
648.8424	0.032331
649.5329	0.033631
650.2236	0.030920
650.9143	0.030543
651.6051	0.028224
652.2960	0.030494
652.9870	0.033063
653.6780	0.031873
654.3692	0.033471
655.0605	0.065747
655.7518	0.956030
656.4433	1.006725
657.1348	0.867912
657.8264	0.535872
658.5181	0.411737
659.2099	0.331543
659.9018	0.099877
660.5938	0.032436
661.2859	0.023088
661.9781	0.021094
662.6704	0.023385
663.3627	0.023904
664.0552	0.024039
664.7477	0.023456
665.4403	0.022906
666.1330	0.024094
666.8259	0.020051
667.5188	0.021117
668.2117	0.021366
668.9048	0.021982
669.5980	0.019998
670.2913	0.022236
670.9846	0.022552
671.6781	0.027092
672.3716	0.034187
673.0652	0.033701
673.7589	0.031104
674.4527	0.028042
675.1466	0.024157
675.8406	0.024411
676.5347	0.024136
677.2288	0.022996
677.9231	0.027747
678.6174	0.029182
679.3119	0.032413
680.0064	0.032814
680.7010	0.035073
681.3957	0.036425
682.0905	0.032329
682.7854	0.029964
683.4803	0.031167
684.1754	0.032476
684.8705	0.039001
685.5658	0.046433
686.2611	0.044491
686.9565	0.043519
687.6520	0.043097
688.3476	0.037396
689.0433	0.034609
689.7390	0.037269
690.4349	0.034482
691.1308	0.039655
691.8269	0.037671
692.5230	0.039128
693.2192	0.038684
693.9155	0.036805
694.6119	0.032413
695.3083	0.033025
696.0049	0.030069
696.7016	0.036699
697.3983	0.038684
698.0951	0.037016
698.7920	0.036256
699.4890	0.034039
700.1861	0.031906
700.8833	0.031695
701.5806	0.031378
702.2779	0.031273
702.9753	0.031104
703.6729	0.028992
704.3705	0.028718
705.0682	0.025002
705.7660	0.023397
706.4638	0.030069
707.1618	0.038726
707.8599	0.038008
708.5580	0.037502
709.2562	0.033764
709.9545	0.036298
710.6529	0.034841
711.3514	0.030787
712.0500	0.028063
712.7486	0.028866
713.4474	0.031231
714.1462	0.033300
714.8451	0.035559
715.5441	0.035221
716.2432	0.029605
716.9424	0.028507
717.6416	0.027282
718.3410	0.029774
719.0404	0.028275
719.7399	0.025889
720.4395	0.026374
721.1392	0.030238
721.8390	0.029710
722.5388	0.027747
723.2388	0.027029
723.9388	0.027873
724.6389	0.027388
725.3391	0.030872
726.0394	0.034102
726.7398	0.030914
727.4403	0.031590
728.1408	0.032476
728.8414	0.032751
729.5421	0.036340
730.2429	0.035813
730.9438	0.042231
731.6448	0.041112
732.3458	0.041133
733.0470	0.043477
733.7482	0.045631
734.4495	0.050065
735.1509	0.049622
735.8524	0.048460
736.5539	0.048671
737.2556	0.048228
737.9573	0.043118
738.6591	0.040880
739.3610	0.047320
740.0630	0.044090
740.7651	0.037206
741.4672	0.033870
742.1695	0.033490
742.8718	0.035137
743.5742	0.029731
744.2767	0.029647
744.9792	0.029795
745.6819	0.028042
746.3846	0.031146
747.0874	0.029774
747.7903	0.028380
748.4933	0.027704
749.1964	0.030069
749.8995	0.036066
750.6028	0.041176
751.3061	0.037755
752.0095	0.038304
752.7130	0.037924
753.4166	0.036657
754.1202	0.042548
754.8239	0.037734
755.5278	0.041450
756.2317	0.046328
756.9356	0.052008
757.6397	0.056906
758.3438	0.055280
759.0481	0.053106
759.7524	0.057138
760.4568	0.063937
761.1613	0.062438
761.8658	0.055766
762.5705	0.047616
763.2752	0.050002
763.9800	0.048334
764.6849	0.057117
765.3898	0.055259
766.0949	0.050530
766.8000	0.041408
767.5052	0.038262
768.2105	0.042696
768.9159	0.049178
769.6214	0.047468
770.3269	0.044955
771.0325	0.047236
771.7382	0.045568
772.4440	0.039212
773.1499	0.039085
773.8558	0.037101
774.5618	0.034250
775.2679	0.030048
775.9741	0.027641
776.6804	0.025931
777.3868	0.022383
778.0932	0.025867
778.7997	0.028718
779.5063	0.032160
780.2130	0.029753
780.9197	0.030618
781.6265	0.035791
782.3335	0.035559
783.0405	0.034588
783.7475	0.034503
784.4547	0.032835
785.1619	0.028929
785.8692	0.026269
786.5766	0.030133
787.2841	0.026332
787.9917	0.030682
788.6993	0.030724
789.4070	0.027831
790.1148	0.028106
790.8227	0.024685
791.5306	0.024664
792.2387	0.023101
792.9468	0.020842
793.6550	0.022827
794.3632	0.032139
795.0716	0.029837
795.7800	0.031801
796.4885	0.024706
797.1971	0.022954
797.9058	0.024495
798.6145	0.021856
799.3233	0.022341
800.0322	0.020040
800.7412	0.019153
801.4503	0.018308
802.1594	0.017189
802.8686	0.014803
803.5779	0.017654
804.2873	0.015036
804.9968	0.018435
805.7063	0.018646
806.4159	0.022721
807.1256	0.022975
807.8354	0.024157
808.5452	0.023080
809.2551	0.022510
809.9651	0.021792
810.6752	0.019533
811.3853	0.018984
812.0956	0.015310
812.8059	0.013030
813.5163	0.016767
814.2267	0.017633
814.9373	0.016429
815.6479	0.015247
816.3586	0.012840
817.0694	0.015732
817.7802	0.013241
818.4912	0.014170
819.2022	0.011003
819.9133	0.012396
820.6244	0.014867
821.3357	0.015479
822.0470	0.012797
822.7584	0.013325
823.4698	0.011467
824.1814	0.010665
824.8930	0.012058
825.6047	0.012797
826.3165	0.011488
827.0283	0.013748
827.7402	0.013114
828.4522	0.012966
829.1643	0.012227
829.8765	0.012079
830.5887	0.011277
831.3010	0.008173
832.0134	0.007878
832.7259	0.007244
833.4384	0.010707
834.1510	0.009060
834.8637	0.009419
835.5765	0.011573
836.2893	0.008849
837.0022	0.007329
837.7152	0.006357
838.4283	0.008173
839.1414	0.008025
839.8546	0.007371
840.5679	0.007709
841.2813	0.007962
841.9947	0.005935
842.7082	0.003718
843.4218	0.005851
844.1355	0.004689
844.8492	0.004351
845.5631	0.006421
846.2770	0.004267
846.9909	0.004668
847.7050	0.004879
848.4191	0.005217
849.1333	0.004373
849.8475	0.004415
850.5619	0.003697
851.2763	0.003190
851.9908	0.004204
852.7053	0.007941
853.4200	0.013367
854.1347	0.014677
854.8495	0.013008
855.5643	0.013114
856.2792	0.011974
856.9942	0.012692
857.7093	0.008701
858.4245	0.011425
859.1397	0.009271
859.8550	0.010137
860.5704	0.006801
861.2858	0.007498
862.0013	0.005851
862.7169	0.006801
863.4326	0.006970
864.1483	0.007054
864.8642	0.004182
865.5800	0.005914
866.2960	0.003401
867.0120	0.006231
867.7281	0.005323
868.4443	0.005576
869.1606	0.004795
869.8769	0.004204
870.5933	0.004753
871.3097	0.004943
872.0263	0.005703
872.7429	0.004204
873.4596	0.003845
874.1763	0.004330
874.8932	0.006843
875.6101	0.007181
876.3270	0.006188
877.0441	0.004351
877.7612	0.006125
878.4784	0.007033
879.1957	0.008448
879.9130	0.006716
880.6304	0.008089
881.3479	0.006927
882.0654	0.007160
882.7831	0.006125
883.5007	0.005977
884.2185	0.006991
884.9363	0.005576
885.6542	0.005893
886.3722	0.005851
887.0903	0.005069
887.8084	0.004922
888.5266	0.005217
889.2448	0.003655
889.9632	0.003845
890.6816	0.005217
891.4001	0.003824
892.1186	0.006590
892.8372	0.006315
893.5559	0.005470
894.2747	0.004119
894.9935	0.004478
895.7124	0.004161
896.4314	0.005576
897.1504	0.004563
897.8695	0.003781
898.5887	0.005259
899.3079	0.004204
900.0272	0.003802
900.7466	0.004457
901.4661	0.003591
902.1856	0.004225
902.9052	0.002873
903.6249	0.004204
904.3446	0.004225
905.0644	0.003908
905.7843	0.004204
906.5043	0.006062
907.2243	0.003612
907.9444	0.004415
908.6645	0.004710
909.3847	0.002388
910.1050	0.002536
910.8254	0.003380
911.5458	0.003781
912.2663	0.004014
912.9869	0.003824
913.7075	0.004584
914.4283	0.002536
915.1490	0.003591
915.8699	0.003338
916.5908	0.002937
917.3118	0.003232
918.0328	0.004626
918.7539	0.003106
919.4751	0.003950
920.1964	0.004394
920.9177	0.001374
921.6391	0.003422
922.3606	0.003845
923.0821	0.001628
923.8037	0.000783
924.5254	0.002578
925.2471	0.004119
925.9689	0.001860
926.6908	0.002451
927.4127	0.002240
928.1347	0.000889
928.8568	0.001797
929.5789	0.001902
930.3011	0.002430
931.0234	0.002493
931.7457	0.001733
932.4681	0.001839
933.1906	0.001332
933.9131	0.002599
934.6358	0.003591
935.3584	0.002726
936.0812	0.002388
936.8040	0.001564
937.5269	0.001839
938.2498	0.001205
938.9728	0.000825
939.6959	0.000846
940.4190	0.000487
941.1422	0.000403
941.8655	0.002536
942.5889	0.001923
943.3123	0.000614
944.0357	0.000910
944.7593	0.001712
945.4829	-0.000146
946.2066	0.000318
946.9303	0.001332
947.6541	0.001036
948.3780	-0.001096
949.1019	0.001416
949.8259	-0.000167
950.5500	-0.000568
951.2741	0.000994
951.9983	0.001944
952.7226	0.001459
953.4469	0.000445
954.1713	0.000213
954.8958	0.001965
955.6203	0.000276
956.3449	0.001881
957.0696	0.000107
957.7943	0.000255
958.5191	0.001987
959.2439	0.002134
959.9688	-0.000421
960.6938	0.000065
961.4189	0.000889
962.1440	0.000276
962.8692	0.001416
963.5944	0.000171
964.3197	-0.000019
965.0451	0.001290
965.7705	0.001944
966.4960	-0.000062
967.2216	0.000213
967.9472	0.002177
968.6729	-0.000611
969.3987	0.001248
970.1245	-0.000442
970.8504	0.000340
971.5763	0.000509
972.3023	-0.000273
973.0284	-0.000399
973.7545	-0.000484
974.4807	0.000023
975.2070	0.000466
975.9333	0.000487
976.6597	0.001015
977.3862	-0.000294
978.1127	0.001058
978.8393	-0.000019
979.5659	-0.000062
980.2926	0.000867
981.0194	0.001649
981.7462	-0.000019
982.4731	0.000720
983.2001	0.000403
983.9271	0.001353
984.6542	-0.000674
985.3814	-0.001392
986.1086	0.000382
986.8358	0.001459
987.5632	-0.000421
988.2906	0.000910
989.0180	-0.000948
989.7456	0.001248
990.4732	0.000424
991.2008	0.000107
991.9285	0.000361
992.6563	0.000699
993.3841	0.000804
994.1120	0.001036
994.8400	0.000783
995.5680	-0.000273
996.2961	0.000107
997.0242	0.001712
997.7524	0.001670
998.4807	0.000255
999.2090	-0.000611
999.9374	-0.001434
1000.67	0.001184
1001.39	0.000213
1002.12	0.000994
1002.85	-0.000252
1003.58	-0.000188
1004.31	-0.000062
1005.04	-0.000146
1005.77	-0.000674
1006.5	0.000846
1007.22	-0.000484
1007.95	-0.000125
1008.68	-0.000421
1009.41	0.000023
1010.14	-0.000948
1010.87	0.001395
1011.6	0.001100
1012.33	0.000677
1013.06	-0.000146
1013.79	0.000572
1014.52	0.000340
1015.25	0.001142
1015.98	0.000361
1016.71	-0.000040
1017.44	-0.000167
1018.17	-0.000252
1018.9	-0.000336
1019.63	0.000931
1020.36	0.000276
1021.09	0.000635
1021.82	0.000466
1022.55	-0.000378
1023.03	0.000509