File: Auto_Polymerization/Data/UV_VIS_Spectra/MRG-061-F-2_spectra_while_stopped/spectrum_2025-06-19_12-19-45.txt
# Wavelength (nm)	Intensity (a.u.)
197.7802	0.000164
198.3922	-0.000237
199.0044	0.001008
199.6168	0.000248
200.2292	0.001071
200.8418	0.001557
201.4546	0.001599
202.0674	-0.000195
202.6805	0.001746
203.2936	0.001303
203.9069	0.000607
204.5203	-0.000301
205.1338	0.001092
205.7475	-0.001757
206.3614	0.000417
206.9753	0.000480
207.5894	0.000121
208.2036	0.000818
208.8180	0.001451
209.4325	0.000628
210.0471	0.000586
210.6618	-0.000153
211.2767	0.002570
211.8918	0.000100
212.5069	0.001641
213.1222	0.001704
213.7376	0.001683
214.3532	-0.000427
214.9689	0.001810
215.5847	0.001008
216.2007	-0.000491
216.8168	0.001725
217.4330	0.001303
218.0494	0.002042
218.6659	0.001008
219.2825	-0.000448
219.8992	0.001240
220.5161	-0.000301
221.1332	0.000923
221.7503	0.001472
222.3676	0.000206
222.9850	0.000206
223.6026	0.000417
224.2203	-0.000385
224.8381	0.002063
225.4561	0.000966
226.0742	0.000396
226.6924	-0.000638
227.3107	0.000670
227.9292	-0.000723
228.5478	0.000607
229.1666	0.001704
229.7855	0.000607
230.4045	-0.000406
231.0236	0.002295
231.6429	-0.000533
232.2623	0.001535
232.8818	-0.000681
233.5015	0.000121
234.1213	0.000142
234.7413	0.001641
235.3613	0.000881
235.9815	0.001071
236.6018	0.000543
237.2223	0.002570
237.8429	0.000839
238.4636	0.000269
239.0845	-0.000195
239.7055	0.001177
240.3266	0.000586
240.9478	0.000058
241.5692	-0.000448
242.1907	0.001493
242.8124	0.001029
243.4341	0.000459
244.0560	0.001177
244.6781	0.000565
245.3002	0.000396
245.9225	0.001345
246.5449	-0.000090
247.1675	0.000987
247.7902	0.000902
248.4130	0.001810
249.0359	0.000670
249.6590	0.000375
250.2822	0.001113
250.9056	0.002105
251.5290	-0.000343
252.1526	0.001388
252.7763	0.000269
253.4002	0.001240
254.0242	0.000354
254.6483	0.000037
255.2725	-0.001018
255.8969	0.001936
256.5214	0.000185
257.1460	0.001430
257.7708	-0.000596
258.3957	0.001388
259.0207	-0.000069
259.6459	0.000902
260.2711	0.001324
260.8965	0.000839
261.5221	0.000037
262.1477	0.000839
262.7735	0.000058
263.3995	0.000923
264.0255	0.000164
264.6517	0.002527
265.2780	0.000438
265.9044	0.001113
266.5310	0.001936
267.1577	0.000100
267.7845	0.000100
268.4114	0.001198
269.0385	0.000586
269.6657	0.001113
270.2931	-0.000153
270.9205	0.000459
271.5481	0.002380
272.1758	0.002042
272.8037	-0.000153
273.4316	0.001557
274.0597	-0.000237
274.6880	0.000079
275.3163	0.001451
275.9448	-0.000364
276.5734	0.001177
277.2022	0.000121
277.8310	-0.000828
278.4600	0.001198
279.0891	0.000966
279.7184	0.000902
280.3477	0.000733
280.9772	0.000987
281.6069	0.001050
282.2366	-0.000132
282.8665	0.001768
283.4965	0.000290
284.1266	-0.000617
284.7569	0.000016
285.3873	0.000987
286.0178	0.000649
286.6484	0.000966
287.2792	0.001324
287.9101	-0.000638
288.5411	0.001388
289.1723	0.001219
289.8035	0.001156
290.4349	0.001050
291.0665	0.000332
291.6981	0.000649
292.3299	0.001578
292.9618	0.000944
293.5938	0.000290
294.2260	0.000818
294.8582	0.001662
295.4906	0.000881
296.1232	0.000607
296.7558	-0.000111
297.3886	0.001303
298.0215	-0.000216
298.6545	0.001282
299.2877	0.001219
299.9210	0.000818
300.5544	-0.000828
301.1879	0.000818
301.8215	0.001683
302.4553	0.001282
303.0892	0.000586
303.7233	0.001578
304.3574	0.000417
304.9917	0.000290
305.6261	0.001113
306.2606	0.001873
306.8953	0.000712
307.5301	0.001852
308.1650	0.000354
308.8000	0.001113
309.4351	0.000797
310.0704	-0.000069
310.7058	-0.000005
311.3413	-0.000005
311.9770	0.000037
312.6127	0.000565
313.2486	0.000881
313.8846	0.000185
314.5208	0.000142
315.1570	0.000206
315.7934	-0.000280
316.4299	0.001894
317.0666	0.000902
317.7033	0.001409
318.3402	0.000987
318.9772	0.000818
319.6143	0.002274
320.2516	0.001979
320.8890	0.000354
321.5265	0.000691
322.1641	0.000733
322.8018	0.002696
323.4397	0.000944
324.0777	0.000501
324.7158	0.001831
325.3540	0.002316
325.9924	0.000733
326.6308	0.001345
327.2694	0.001746
327.9082	0.000121
328.5470	0.000164
329.1860	0.000881
329.8251	0.000417
330.4643	0.001451
331.1036	0.000248
331.7431	0.001725
332.3826	0.000839
333.0223	0.001388
333.6622	0.001113
334.3021	-0.000301
334.9422	0.000290
335.5823	0.002295
336.2227	0.001282
336.8631	0.000375
337.5036	0.000860
338.1443	-0.000533
338.7851	0.001198
339.4260	0.001345
340.0670	0.000121
340.7082	0.002485
341.3495	0.000269
341.9909	0.001683
342.6324	0.001156
343.2740	0.000565
343.9158	0.001430
344.5577	0.001134
345.1997	0.000058
345.8418	0.001156
346.4840	0.000860
347.1264	0.000375
347.7689	0.001958
348.4115	0.001388
349.0542	0.001219
349.6971	-0.000470
350.3400	0.000332
350.9831	0.001324
351.6263	-0.000132
352.2696	0.001409
352.9131	-0.000828
353.5566	0.000923
354.2003	0.001050
354.8441	0.000797
355.4881	0.000944
356.1321	0.000712
356.7763	0.000354
357.4206	0.000797
358.0650	0.001113
358.7095	0.001599
359.3541	0.001958
359.9989	0.001514
360.6438	-0.000259
361.2888	0.001303
361.9339	0.000227
362.5791	0.000628
363.2245	-0.000237
363.8699	-0.000638
364.5155	0.001936
365.1612	0.000586
365.8071	0.001746
366.4530	0.000881
367.0991	0.001156
367.7453	0.001156
368.3916	0.001345
369.0380	0.001134
369.6845	0.000206
370.3312	0.002232
370.9780	0.000037
371.6249	-0.000195
372.2719	0.002042
372.9190	0.000987
373.5663	-0.000364
374.2136	0.000966
374.8611	0.000501
375.5087	0.001430
376.1564	0.000628
376.8043	0.000354
377.4522	0.000522
378.1003	0.001409
378.7485	0.001050
379.3968	0.001324
380.0452	-0.001018
380.6938	0.000206
381.3424	0.000248
381.9912	0.001662
382.6401	0.000565
383.2891	0.000290
383.9382	0.002000
384.5875	0.001008
385.2368	0.000185
385.8863	0.000565
386.5359	-0.000237
387.1856	0.000839
387.8355	0.001894
388.4854	0.001050
389.1355	-0.000575
389.7856	0.002253
390.4359	0.000966
391.0863	0.001345
391.7369	0.001704
392.3875	0.001662
393.0383	0.003097
393.6891	0.002021
394.3401	0.001578
394.9912	0.002443
395.6425	0.002570
396.2938	0.003752
396.9453	0.003393
397.5968	0.004786
398.2485	0.004427
398.9003	0.005440
399.5522	0.004089
400.2043	0.006770
400.8564	0.004554
401.5087	0.005862
402.1610	0.003794
402.8135	0.005968
403.4661	0.006200
404.1189	0.006369
404.7717	0.006981
405.4246	0.008901
406.0777	0.007804
406.7309	0.009176
407.3842	0.008542
408.0376	0.010083
408.6911	0.008669
409.3448	0.008542
409.9985	0.011941
410.6524	0.010062
411.3064	0.009302
411.9605	0.010885
412.6147	0.011181
413.2690	0.011160
413.9234	0.012848
414.5780	0.012996
415.2326	0.011835
415.8874	0.012067
416.5423	0.013355
417.1973	0.013080
417.8524	0.014135
418.5077	0.015212
419.1630	0.013924
419.8185	0.015360
420.4741	0.015022
421.1298	0.018610
421.7856	0.022071
422.4415	0.017934
423.0975	0.020805
423.7536	0.018124
424.4099	0.018441
425.0663	0.019644
425.7228	0.018103
426.3793	0.018990
427.0361	0.018926
427.6929	0.018990
428.3498	0.019792
429.0068	0.019496
429.6640	0.022683
430.3213	0.022367
430.9787	0.021649
431.6362	0.021037
432.2938	0.020974
432.9515	0.018314
433.6093	0.021121
434.2673	0.021016
434.9253	0.020488
435.5835	0.020341
436.2418	0.020277
436.9001	0.021016
437.5586	0.021438
438.2173	0.020847
438.8760	0.020974
439.5348	0.022725
440.1938	0.021755
440.8528	0.021164
441.5120	0.024836
442.1713	0.025807
442.8307	0.024308
443.4902	0.026440
444.1498	0.024414
444.8095	0.024836
445.4694	0.024688
446.1293	0.023549
446.7894	0.023760
447.4496	0.023063
448.1098	0.023612
448.7702	0.022620
449.4307	0.022810
450.0914	0.022282
450.7521	0.023928
451.4129	0.020425
452.0739	0.021565
452.7349	0.019264
453.3961	0.018293
454.0574	0.020003
454.7188	0.017238
455.3803	0.018357
456.0419	0.017006
456.7036	0.017787
457.3654	0.018209
458.0274	0.019138
458.6894	0.019264
459.3516	0.016119
460.0138	0.018082
460.6762	0.016668
461.3387	0.015339
462.0013	0.015550
462.6640	0.014051
463.3268	0.014726
463.9897	0.013671
464.6528	0.015001
465.3159	0.015803
465.9792	0.015908
466.6425	0.013903
467.3060	0.013798
467.9696	0.012236
468.6333	0.012700
469.2970	0.011075
469.9610	0.009703
470.6250	0.007466
471.2891	0.008690
471.9533	0.007740
472.6177	0.009556
473.2821	0.007973
473.9467	0.009197
474.6113	0.009091
475.2761	0.009408
475.9410	0.008078
476.6060	0.007762
477.2711	0.007424
477.9363	0.008944
478.6016	0.006242
479.2670	0.005820
479.9325	0.006854
480.5982	0.006664
481.2639	0.006390
481.9298	0.007192
482.5957	0.007487
483.2618	0.004933
483.9280	0.005609
484.5943	0.006348
485.2606	0.006622
485.9271	0.019834
486.5937	0.012215
487.2605	0.012489
487.9273	0.005883
488.5942	0.005461
489.2612	0.003963
489.9284	0.004659
490.5956	0.003287
491.2630	0.005334
491.9304	0.004279
492.5980	0.004385
493.2657	0.003245
493.9334	0.005419
494.6013	0.003519
495.2693	0.005419
495.9374	0.003688
496.6056	0.004828
497.2739	0.003245
497.9423	0.005313
498.6109	0.004364
499.2795	0.003329
499.9482	0.003456
500.6171	0.002464
501.2860	0.004490
501.9551	0.003857
502.6242	0.003583
503.2935	0.003625
503.9628	0.003393
504.6323	0.003435
505.3019	0.003562
505.9716	0.004891
506.6414	0.003224
507.3113	0.003013
507.9813	0.002823
508.6514	0.003308
509.3216	0.003308
509.9919	0.002886
510.6623	0.002992
511.3329	0.002928
512.0035	0.004174
512.6742	0.004131
513.3451	0.004406
514.0160	0.001683
514.6871	0.003562
515.3582	0.004891
516.0295	0.001979
516.7008	0.002823
517.3723	0.003139
518.0439	0.003224
518.7155	0.002950
519.3873	0.004701
520.0592	0.002802
520.7312	0.003393
521.4033	0.005377
522.0755	0.003941
522.7478	0.003266
523.4202	0.003815
524.0927	0.003266
524.7653	0.002422
525.4380	0.005123
526.1108	0.005630
526.7837	0.004849
527.4568	0.003878
528.1299	0.003245
528.8031	0.004279
529.4765	0.004955
530.1499	0.005250
530.8234	0.005208
531.4971	0.003519
532.1708	0.005334
532.8447	0.006411
533.5186	0.007635
534.1927	0.007403
534.8668	0.009112
535.5411	0.006833
536.2155	0.008754
536.8899	0.007930
537.5645	0.009133
538.2392	0.010970
538.9139	0.007867
539.5888	0.010843
540.2638	0.010294
540.9389	0.009281
541.6140	0.012679
542.2893	0.012342
542.9647	0.012468
543.6402	0.012194
544.3158	0.014241
544.9915	0.013608
545.6673	0.013903
546.3432	0.014347
547.0192	0.016520
547.6953	0.017175
548.3715	0.019644
549.0478	0.019159
549.7242	0.017555
550.4007	0.017808
551.0773	0.017111
551.7540	0.016162
552.4308	0.021227
553.1077	0.018758
553.7847	0.024308
554.4618	0.021902
555.1390	0.023084
555.8163	0.023971
556.4937	0.027094
557.1712	0.022852
557.8488	0.027981
558.5266	0.024308
559.2044	0.025068
559.8823	0.025364
560.5603	0.030513
561.2384	0.034439
561.9166	0.032962
562.5949	0.031632
563.2733	0.034819
563.9519	0.036529
564.6305	0.038808
565.3092	0.039188
565.9880	0.040159
566.6669	0.039821
567.3459	0.048664
568.0250	0.052611
568.7043	0.062045
569.3836	0.071669
570.0630	0.099508
570.7425	0.101154
571.4221	0.117469
572.1018	0.131609
572.7816	0.115210
573.4615	0.132644
574.1415	0.156556
574.8216	0.165632
575.5018	0.171478
576.1821	0.151765
576.8626	0.171541
577.5431	0.188573
578.2237	0.230552
578.9044	0.193322
579.5851	0.194842
580.2660	0.205416
580.9470	0.196762
581.6281	0.307504
582.3093	0.293363
582.9906	0.233360
583.6720	0.191106
584.3535	0.191655
585.0351	0.220633
585.7167	0.228948
586.3985	0.195749
587.0804	0.204445
587.7624	0.217404
588.4445	0.198092
589.1266	0.172955
589.8089	0.159891
590.4913	0.142247
591.1737	0.132137
591.8563	0.127219
592.5389	0.149190
593.2217	0.201659
593.9046	0.186484
594.5875	0.168122
595.2705	0.190895
595.9537	0.171119
596.6369	0.139608
597.3203	0.145455
598.0037	0.142521
598.6872	0.147016
599.3709	0.179751
600.0546	0.176775
600.7384	0.179751
601.4223	0.177957
602.1064	0.162677
602.7905	0.164112
603.4747	0.184458
604.1590	0.172892
604.8434	0.153158
605.5279	0.158561
606.2125	0.169916
606.8972	0.154994
607.5819	0.154087
608.2668	0.143597
608.9518	0.140242
609.6369	0.134965
610.3220	0.147185
611.0073	0.137287
611.6927	0.138152
612.3781	0.124856
613.0637	0.132475
613.7493	0.123990
614.4351	0.125024
615.1209	0.125721
615.8068	0.129182
616.4929	0.113965
617.1790	0.105987
617.8652	0.111221
618.5515	0.102526
619.2379	0.091572
619.9244	0.093746
620.6110	0.093725
621.2977	0.073083
621.9845	0.078909
622.6714	0.086042
623.3584	0.089926
624.0454	0.086211
624.7326	0.090158
625.4199	0.083932
626.1072	0.076017
626.7947	0.073273
627.4822	0.072894
628.1698	0.065739
628.8576	0.056706
629.5454	0.061771
630.2333	0.061961
630.9213	0.054489
631.6094	0.052463
632.2976	0.050796
632.9859	0.044886
633.6743	0.045097
634.3628	0.042311
635.0514	0.041953
635.7400	0.043831
636.4288	0.045984
637.1177	0.041953
637.8066	0.038702
638.4957	0.042712
639.1848	0.042333
639.8740	0.039620
640.5633	0.036652
641.2528	0.035149
641.9423	0.032617
642.6319	0.029360
643.3216	0.029333
644.0113	0.029850
644.7012	0.025881
645.3912	0.027514
646.0812	0.026266
646.7714	0.025879
647.4616	0.024050
648.1520	0.030226
648.8424	0.032266
649.5329	0.032090
650.2236	0.031678
650.9143	0.028568
651.6051	0.030746
652.2960	0.030642
652.9870	0.032253
653.6780	0.032409
654.3692	0.033576
655.0605	0.065199
655.7518	0.941279
656.4433	1.000000
657.1348	0.862694
657.8264	0.530293
658.5181	0.412561
659.2099	0.334812
659.9018	0.100080
660.5938	0.031234
661.2859	0.025123
661.9781	0.024190
662.6704	0.022497
663.3627	0.020955
664.0552	0.022033
664.7477	0.021151
665.4403	0.023702
666.1330	0.024160
666.8259	0.019930
667.5188	0.022598
668.2117	0.020114
668.9048	0.023190
669.5980	0.022367
670.2913	0.021902
670.9846	0.022451
671.6781	0.030577
672.3716	0.032962
673.0652	0.033679
673.7589	0.028719
674.4527	0.026925
675.1466	0.027115
675.8406	0.026778
676.5347	0.025575
677.2288	0.023549
677.9231	0.028044
678.6174	0.029163
679.3119	0.034418
680.0064	0.035959
680.7010	0.031780
681.3957	0.035030
682.0905	0.034925
682.7854	0.030408
683.4803	0.032012
684.1754	0.033131
684.8705	0.039082
685.5658	0.044021
686.2611	0.044929
686.9565	0.044000
687.6520	0.043050
688.3476	0.039357
689.0433	0.037162
689.7390	0.034608
690.4349	0.033067
691.1308	0.039737
691.8269	0.037246
692.5230	0.038428
693.2192	0.038365
693.9155	0.036550
694.6119	0.034270
695.3083	0.035051
696.0049	0.032075
696.7016	0.035684
697.3983	0.039948
698.0951	0.038766
698.7920	0.037795
699.4890	0.033996
700.1861	0.031421
700.8833	0.029057
701.5806	0.030176
702.2779	0.027284
702.9753	0.030619
703.6729	0.028424
704.3705	0.027664
705.0682	0.025765
705.7660	0.023591
706.4638	0.032096
707.1618	0.036254
707.8599	0.038027
708.5580	0.036761
709.2562	0.033278
709.9545	0.034291
710.6529	0.034524
711.3514	0.031505
712.0500	0.029627
712.7486	0.031168
713.4474	0.031864
714.1462	0.034524
714.8451	0.035368
715.5441	0.035727
716.2432	0.030893
716.9424	0.029395
717.6416	0.028023
718.3410	0.028572
719.0404	0.030134
719.7399	0.030661
720.4395	0.028635
721.1392	0.028635
721.8390	0.030577
722.5388	0.029817
723.2388	0.027770
723.9388	0.030155
724.6389	0.027664
725.3391	0.031442
726.0394	0.033722
726.7398	0.031759
727.4403	0.031168
728.1408	0.033194
728.8414	0.033468
729.5421	0.037352
730.2429	0.037837
730.9438	0.043050
731.6448	0.043451
732.3458	0.038407
733.0470	0.042100
733.7482	0.046533
734.4495	0.053308
735.1509	0.047525
735.8524	0.047039
736.5539	0.049720
737.2556	0.047039
737.9573	0.043240
738.6591	0.039863
739.3610	0.046343
740.0630	0.042945
740.7651	0.039483
741.4672	0.035136
742.1695	0.034798
742.8718	0.035600
743.5742	0.030978
744.2767	0.031273
744.9792	0.031147
745.6819	0.028192
746.3846	0.029057
747.0874	0.027601
747.7903	0.030535
748.4933	0.027390
749.1964	0.031273
749.8995	0.036655
750.6028	0.042079
751.3061	0.037563
752.0095	0.039399
752.7130	0.037605
753.4166	0.037732
754.1202	0.042417
754.8239	0.039610
755.5278	0.043135
756.2317	0.046638
756.9356	0.051767
757.6397	0.059006
758.3438	0.056832
759.0481	0.054468
759.7524	0.059808
760.4568	0.063544
761.1613	0.062868
761.8658	0.053856
762.5705	0.047947
763.2752	0.051788
763.9800	0.049192
764.6849	0.057360
765.3898	0.058858
766.0949	0.050205
766.8000	0.042881
767.5052	0.038956
768.2105	0.043472
768.9159	0.049530
769.6214	0.047736
770.3269	0.045182
771.0325	0.049720
771.7382	0.045857
772.4440	0.042438
773.1499	0.040623
773.8558	0.039547
774.5618	0.033722
775.2679	0.030091
775.9741	0.027390
776.6804	0.025321
777.3868	0.024519
778.0932	0.026757
778.7997	0.027137
779.5063	0.030746
780.2130	0.028445
780.9197	0.030323
781.6265	0.034925
782.3335	0.034207
783.0405	0.034967
783.7475	0.037246
784.4547	0.032054
785.1619	0.029205
785.8692	0.028234
786.5766	0.029416
787.2841	0.029585
787.9917	0.031294
788.6993	0.029796
789.4070	0.029268
790.1148	0.027685
790.8227	0.024118
791.5306	0.025216
792.2387	0.023211
792.9468	0.023739
793.6550	0.022915
794.3632	0.031759
795.0716	0.030999
795.7800	0.030492
796.4885	0.024013
797.1971	0.021164
797.9058	0.023696
798.6145	0.024330
799.3233	0.022029
800.0322	0.020657
800.7412	0.019159
801.4503	0.020129
802.1594	0.018821
802.8686	0.015845
803.5779	0.020530
804.2873	0.015782
804.9968	0.018948
805.7063	0.017576
806.4159	0.024372
807.1256	0.023992
807.8354	0.021902
808.5452	0.025258
809.2551	0.021670
809.9651	0.019496
810.6752	0.019644
811.3853	0.017829
812.0956	0.016436
812.8059	0.014178
813.5163	0.016352
814.2267	0.018124
814.9373	0.016837
815.6479	0.015360
816.3586	0.014262
817.0694	0.015149
817.7802	0.015803
818.4912	0.013882
819.2022	0.012827
819.9133	0.012426
820.6244	0.014325
821.3357	0.014283
822.0470	0.014241
822.7584	0.014283
823.4698	0.012447
824.1814	0.012447
824.8930	0.011476
825.6047	0.013502
826.3165	0.012426
827.0283	0.011371
827.7402	0.012721
828.4522	0.012574
829.1643	0.014515
829.8765	0.013165
830.5887	0.009935
831.3010	0.008775
832.0134	0.008775
832.7259	0.008859
833.4384	0.010442
834.1510	0.009429
834.8637	0.010590
835.5765	0.009366
836.2893	0.009935
837.0022	0.007783
837.7152	0.008099
838.4283	0.008542
839.1414	0.007361
839.8546	0.007213
840.5679	0.007002
841.2813	0.006537
841.9947	0.006453
842.7082	0.007234
843.4218	0.006580
844.1355	0.005672
844.8492	0.005419
845.5631	0.005018
846.2770	0.005609
846.9909	0.005778
847.7050	0.004131
848.4191	0.005039
849.1333	0.003604
849.8475	0.005883
850.5619	0.003709
851.2763	0.005292
851.9908	0.004195
852.7053	0.009302
853.4200	0.014347
854.1347	0.015149
854.8495	0.014325
855.5643	0.012848
856.2792	0.012320
856.9942	0.013819
857.7093	0.010548
858.4245	0.010949
859.1397	0.009176
859.8550	0.010231
860.5704	0.008416
861.2858	0.007171
862.0013	0.007107
862.7169	0.006896
863.4326	0.005313
864.1483	0.007361
864.8642	0.005989
865.5800	0.006284
866.2960	0.006917
867.0120	0.006031
867.7281	0.004659
868.4443	0.004680
869.1606	0.005229
869.8769	0.005672
870.5933	0.006453
871.3097	0.006284
872.0263	0.005271
872.7429	0.004680
873.4596	0.006073
874.1763	0.005102
874.8932	0.007065
875.6101	0.007171
876.3270	0.005820
877.0441	0.006200
877.7612	0.006812
878.4784	0.006727
879.1957	0.006896
879.9130	0.007846
880.6304	0.009133
881.3479	0.006981
882.0654	0.007044
882.7831	0.006200
883.5007	0.006622
884.2185	0.005714
884.9363	0.004912
885.6542	0.007234
886.3722	0.007445
887.0903	0.006981
887.8084	0.005693
888.5266	0.006221
889.2448	0.005651
889.9632	0.004131
890.6816	0.004680
891.4001	0.004237
892.1186	0.004258
892.8372	0.005609
893.5559	0.005060
894.2747	0.005440
894.9935	0.005714
895.7124	0.005039
896.4314	0.004659
897.1504	0.005989
897.8695	0.004406
898.5887	0.005904
899.3079	0.004321
900.0272	0.003688
900.7466	0.005630
901.4661	0.003878
902.1856	0.005503
902.9052	0.004976
903.6249	0.004532
904.3446	0.005503
905.0644	0.004976
905.7843	0.005313
906.5043	0.005271
907.2243	0.006369
907.9444	0.005799
908.6645	0.003667
909.3847	0.004469
910.1050	0.003519
910.8254	0.004976
911.5458	0.004089
912.2663	0.004807
912.9869	0.003688
913.7075	0.003899
914.4283	0.003414
915.1490	0.003583
915.8699	0.004216
916.5908	0.004174
917.3118	0.004342
918.0328	0.005630
918.7539	0.003878
919.4751	0.003118
920.1964	0.003984
920.9177	0.001979
921.6391	0.003139
922.3606	0.003836
923.0821	0.002464
923.8037	0.002147
924.5254	0.004364
925.2471	0.001831
925.9689	0.002612
926.6908	0.003836
927.4127	0.002042
928.1347	0.003477
928.8568	0.003287
929.5789	0.002717
930.3011	0.002316
931.0234	0.001768
931.7457	0.002591
932.4681	0.003414
933.1906	0.002211
933.9131	0.003540
934.6358	0.001789
935.3584	0.003646
936.0812	0.003055
936.8040	0.001451
937.5269	0.001008
938.2498	0.000839
938.9728	0.002295
939.6959	0.001282
940.4190	0.003583
941.1422	0.001915
941.8655	0.003941
942.5889	0.000480
943.3123	0.001831
944.0357	0.002464
944.7593	0.002253
945.4829	0.001810
946.2066	0.001768
946.9303	0.000923
947.6541	0.000797
948.3780	0.001852
949.1019	0.002675
949.8259	0.001134
950.5500	0.002886
951.2741	0.001388
951.9983	0.002380
952.7226	0.003076
953.4469	0.002126
954.1713	0.001388
954.8958	0.001915
955.6203	0.001958
956.3449	0.001535
957.0696	0.001345
957.7943	0.000396
958.5191	0.001050
959.2439	0.002105
959.9688	0.001789
960.6938	0.001472
961.4189	0.001535
962.1440	0.001219
962.8692	0.000396
963.5944	0.001345
964.3197	0.001282
965.0451	0.001430
965.7705	0.001430
966.4960	0.000818
967.2216	0.000987
967.9472	-0.000153
968.6729	0.001472
969.3987	0.002316
970.1245	-0.000364
970.8504	-0.000026
971.5763	0.001620
972.3023	0.002021
973.0284	0.000565
973.7545	0.001599
974.4807	0.000269
975.2070	0.001177
975.9333	0.000459
976.6597	0.002464
977.3862	0.000733
978.1127	0.001451
978.8393	0.001261
979.5659	0.000058
980.2926	0.002274
981.0194	0.001557
981.7462	0.001725
982.4731	0.000206
983.2001	0.001177
983.9271	0.002105
984.6542	0.001768
985.3814	0.002359
986.1086	0.000755
986.8358	0.002443
987.5632	0.000607
988.2906	0.001177
989.0180	0.000522
989.7456	0.002253
990.4732	0.000776
991.2008	0.001915
991.9285	0.000058
992.6563	0.000586
993.3841	0.001219
994.1120	0.001557
994.8400	0.000797
995.5680	0.001113
996.2961	0.000607
997.0242	0.000691
997.7524	-0.000153
998.4807	0.001725
999.2090	-0.000026
999.9374	0.001578
1000.67	0.001683
1001.39	-0.000406
1002.12	0.000776
1002.85	0.000586
1003.58	0.000164
1004.31	-0.000596
1005.04	0.000839
1005.77	-0.000596
1006.5	0.000586
1007.22	0.000480
1007.95	0.000375
1008.68	-0.000533
1009.41	0.001725
1010.14	0.001831
1010.87	0.000818
1011.6	-0.000132
1012.33	0.000733
1013.06	0.001092
1013.79	0.003920
1014.52	0.000417
1015.25	0.000607
1015.98	0.000944
1016.71	0.000649
1017.44	0.001303
1018.17	0.000797
1018.9	0.001071
1019.63	0.001134
1020.36	0.000438
1021.09	-0.000406
1021.82	-0.000174
1022.55	-0.000132
1023.03	0.001852