File: Auto_Polymerization/Data/UV_VIS_Spectra/MRG-061-F-2_spectra_while_stopped/spectrum_2025-06-19_10-56-36_absorbance.txt
# Wavelength	Absorbance
197.78 0.090353
198.392 2.682145
199.004 2.918555
199.617 2.768638
200.229 -0.601687
200.842 -0.139390
201.455 0.418119
202.067 2.760422
202.68 0.222064
203.294 0.304166
203.907 -0.543386
204.52 0.157702
205.134 1.450319
205.748 0.506054
206.361 -3.200029
206.975 2.294466
207.589 -2.788168
208.204 0.483902
208.818 2.495544
209.433 2.907949
210.047 0.296224
210.662 3.055378
211.277 0.150552
211.892 2.480007
212.507 3.209783
213.122 2.866287
213.738 -0.139078
214.353 -2.741152
214.969 1.253074
215.585 2.846955
216.201 -0.364082
216.817 -0.223882
217.433 0.167343
218.049 0.000000
218.666 0.429278
219.282 0.554406
219.899 0.179151
220.516 -2.582063
221.133 2.902003
221.75 0.652076
222.368 0.082695
222.985 0.000000
223.603 0.005091
224.22 2.634477
224.838 2.890421
225.456 0.047907
226.074 2.632457
226.692 0.000000
227.311 0.054268
227.929 3.252853
228.548 3.108227
229.167 -1.643453
229.786 -0.339607
230.405 -0.985114
231.024 -0.047598
231.643 -0.197952
232.262 3.280123
232.882 -0.551180
233.501 -0.336796
234.121 0.000000
234.741 0.128655
235.361 2.821514
235.982 2.562293
236.602 0.000000
237.222 -0.095204
237.843 -0.589651
238.464 1.128835
239.084 -2.283301
239.706 -0.381033
240.327 -0.778618
240.948 0.011702
241.569 2.632457
242.191 -0.026678
242.812 0.774798
243.434 -0.093182
244.056 -2.788168
244.678 0.057941
245.3 2.357935
245.923 0.132363
246.545 -0.185864
247.167 3.215373
247.79 0.201645
248.413 0.696648
249.036 0.343071
249.659 0.524182
250.282 3.189490
250.906 0.196706
251.529 2.008600
252.153 3.289589
252.776 -0.359456
253.4 2.935003
254.024 -0.133727
254.648 2.769377
255.273 0.624848
255.897 3.030195
256.521 -0.077887
257.146 -0.286363
257.771 -2.627366
258.396 0.676245
259.021 3.026125
259.646 1.385469
260.271 -0.503328
260.897 0.228367
261.522 3.142702
262.148 1.346442
262.774 0.219882
263.399 3.206826
264.026 0.026983
264.652 -0.040382
265.278 2.990339
265.904 0.120263
266.531 -0.429810
267.158 0.014977
267.784 2.550228
268.411 0.353217
269.038 -0.282689
269.666 -0.040794
270.293 -2.893762
270.921 -0.082670
271.548 2.691965
272.176 0.746130
272.804 3.021603
273.432 3.165244
274.06 -0.211798
274.688 0.150533
275.316 0.407018
275.945 2.965672
276.573 2.840106
277.202 3.047275
277.831 0.377444
278.46 0.053552
279.089 2.691965
279.718 3.272770
280.348 2.632457
280.977 2.571126
281.607 0.000000
282.237 1.573275
282.866 2.791691
283.497 3.030600
284.127 -2.024720
284.757 3.025715
285.387 -2.706718
286.018 3.294246
286.648 2.940516
287.279 -0.226396
287.91 0.388180
288.541 3.352954
289.172 0.000000
289.803 -2.440909
290.435 0.000000
291.067 1.784400
291.698 2.768638
292.33 3.042969
292.962 -3.065580
293.594 0.389452
294.226 -2.724276
294.858 0.115775
295.491 0.000000
296.123 3.247728
296.756 3.220892
297.389 0.307637
298.022 3.149219
298.654 0.228635
299.288 -1.643453
299.921 1.591065
300.554 0.164072
301.188 3.104487
301.822 0.022711
302.455 0.921513
303.089 2.357935
303.723 2.924279
304.357 1.071241
304.992 2.784617
305.626 -0.412252
306.261 1.021769
306.895 0.467978
307.53 3.165244
308.165 0.000000
308.8 0.927017
309.435 -0.518701
310.07 0.298456
310.706 3.168203
311.341 -0.010836
311.977 3.142702
312.613 0.255441
313.249 3.332034
313.885 3.086360
314.521 3.104828
315.157 0.574691
315.793 -0.119842
316.43 0.147140
317.067 3.463445
317.703 1.401761
318.34 1.454152
318.977 3.437592
319.614 2.943989
320.252 0.270391
320.889 2.465383
321.526 0.829271
322.164 0.505214
322.802 0.349131
323.44 0.412948
324.078 3.558108
324.716 3.399154
325.354 0.526099
325.992 1.952982
326.631 3.581495
327.269 0.252918
327.908 3.508395
328.547 1.308309
329.186 0.806915
329.825 0.836793
330.464 3.658298
331.104 0.557519
331.743 3.583879
332.383 3.520876
333.022 0.383952
333.662 1.433290
334.302 0.475939
334.942 1.095477
335.582 0.530289
336.223 3.666237
336.863 3.676053
337.504 1.737599
338.144 3.781037
338.785 0.696739
339.426 0.517908
340.067 1.458087
340.708 3.745543
341.349 3.731266
341.991 1.090014
342.632 3.830460
343.274 1.293558
343.916 3.793022
344.558 1.710738
345.2 1.110208
345.842 0.965265
346.484 3.898615
347.126 1.199294
347.769 3.886321
348.411 2.067957
349.054 0.937972
349.697 0.915168
350.34 3.937869
350.983 1.230292
351.626 3.954918
352.27 1.102138
352.913 1.079953
353.557 0.929133
354.2 1.224180
354.844 0.898059
355.488 0.964653
356.132 0.857769
356.776 2.330875
357.421 3.988202
358.065 3.991935
358.709 4.012879
359.354 3.988202
359.999 0.899798
360.644 3.982497
361.289 1.354613
361.934 1.340937
362.579 1.560418
363.224 4.031206
363.87 0.789366
364.515 1.100200
365.161 1.110306
365.807 1.263007
366.453 1.345508
367.099 4.077622
367.745 4.114678
368.392 4.101850
369.038 4.150173
369.685 1.903978
370.331 0.994385
370.978 4.107990
371.625 1.316231
372.272 4.101128
372.919 1.161236
373.566 4.154637
374.214 1.262681
374.861 2.523865
375.509 4.212241
376.156 1.941154
376.804 1.103422
377.452 2.093725
378.1 2.318767
378.748 1.577080
379.397 1.989809
380.045 1.544608
380.694 4.279302
381.342 1.392589
381.991 4.304318
382.64 1.673167
383.289 1.910133
383.938 1.324112
384.587 1.575737
385.237 4.356332
385.886 1.062547
386.536 1.502154
387.186 1.468362
387.836 1.071457
388.485 1.069313
389.135 1.122846
389.786 0.922112
390.436 0.996022
391.086 0.866016
391.737 0.916819
392.387 0.695240
393.038 0.758755
393.689 0.590270
394.34 0.623452
394.991 0.516994
395.642 0.562345
396.294 0.454830
396.945 0.586915
397.597 0.366862
398.248 0.415504
398.9 0.348578
399.552 0.367943
400.204 0.339773
400.856 0.298506
401.509 0.287736
402.161 0.288238
402.813 0.222341
403.466 0.245565
404.119 0.246522
404.772 0.245852
405.425 0.217236
406.078 0.204179
406.731 0.184864
407.384 0.194508
408.038 0.214965
408.691 0.153299
409.345 0.198210
409.998 0.180285
410.652 0.153553
411.306 0.145995
411.961 0.122098
412.615 0.142412
413.269 0.119276
413.923 0.161557
414.578 0.157255
415.233 0.122544
415.887 0.157862
416.542 0.107621
417.197 0.154849
417.852 0.150981
418.508 0.109782
419.163 0.103629
419.818 0.107513
420.474 0.101066
421.13 0.118763
421.786 0.121965
422.442 0.148385
423.098 0.108613
423.754 0.126924
424.41 0.126426
425.066 0.137175
425.723 0.145135
426.379 0.129505
427.036 0.134699
427.693 0.158904
428.35 0.137489
429.007 0.142610
429.664 0.113239
430.321 0.136227
430.979 0.163936
431.636 0.133656
432.294 0.116461
432.952 0.188561
433.609 0.162362
434.267 0.183319
434.925 0.179946
435.584 0.171730
436.242 0.173302
436.9 0.171996
437.559 0.164075
438.217 0.203416
438.876 0.177183
439.535 0.177808
440.194 0.193903
440.853 0.224834
441.512 0.219354
442.171 0.196816
442.831 0.227596
443.49 0.196442
444.15 0.205278
444.81 0.216959
445.469 0.249138
446.129 0.262116
446.789 0.243036
447.45 0.263384
448.11 0.248496
448.77 0.253104
449.431 0.255067
450.091 0.266332
450.752 0.253569
451.413 0.248640
452.074 0.262864
452.735 0.325743
453.396 0.333126
454.057 0.350516
454.719 0.355768
455.38 0.341252
456.042 0.313046
456.704 0.338545
457.365 0.390879
458.027 0.399962
458.689 0.369620
459.352 0.384579
460.014 0.415208
460.676 0.406063
461.339 0.430948
462.001 0.451784
462.664 0.407261
463.327 0.451034
463.99 0.522941
464.653 0.487964
465.316 0.517663
465.979 0.537910
466.642 0.529308
467.306 0.529424
467.97 0.532878
468.633 0.548725
469.297 0.557161
469.961 0.553374
470.625 0.578597
471.289 0.641056
471.953 0.656104
472.618 0.626375
473.282 0.622062
473.947 0.695500
474.611 0.693623
475.276 0.702636
475.941 0.683423
476.606 0.785400
477.271 0.772167
477.936 0.837077
478.602 0.806468
479.267 0.788782
479.933 0.969146
480.598 0.799060
481.264 0.821859
481.93 0.843184
482.596 0.842596
483.262 0.925678
483.928 0.868598
484.594 0.883642
485.261 1.021010
485.927 0.944926
486.594 0.975565
487.26 0.950912
487.927 0.987349
488.594 0.906730
489.261 1.077790
489.928 1.019700
490.596 0.977762
491.263 1.021349
491.93 1.096952
492.598 1.026493
493.266 1.181884
493.933 1.150032
494.601 1.241349
495.269 1.179235
495.937 1.063678
496.606 1.149877
497.274 1.259068
497.942 1.049727
498.611 1.063053
499.279 1.155119
499.948 1.252775
500.617 1.241315
501.286 1.202590
501.955 1.244626
502.624 1.111184
503.293 1.117995
503.963 1.204564
504.632 1.241913
505.302 1.237273
505.972 1.132419
506.641 1.247976
507.311 1.253973
507.981 1.203753
508.651 1.200285
509.322 1.148477
509.992 1.279188
510.662 1.089786
511.333 1.123409
512.004 1.216950
512.674 1.192341
513.345 1.266250
514.016 1.083271
514.687 1.053269
515.358 1.426332
516.029 1.108253
516.701 1.263703
517.372 1.154851
518.044 1.047436
518.716 1.225936
519.387 1.191616
520.059 1.191513
520.731 0.987739
521.403 1.165745
522.076 1.045221
522.748 1.031650
523.42 1.064527
524.093 0.983265
524.765 0.999965
525.438 1.010422
526.111 0.956580
526.784 1.055963
527.457 1.151266
528.13 0.949987
528.803 0.972092
529.476 0.787291
530.15 0.943789
530.823 0.896348
531.497 1.007504
532.171 0.952241
532.845 0.977124
533.519 0.828052
534.193 0.808381
534.867 0.807171
535.541 0.786833
536.216 0.708975
536.89 0.746413
537.564 0.772562
538.239 0.748446
538.914 0.728517
539.589 0.671651
540.264 0.611682
540.939 0.627267
541.614 0.601070
542.289 0.655496
542.965 0.576445
543.64 0.582059
544.316 0.515511
544.991 0.508684
545.667 0.536093
546.343 0.498589
547.019 0.489069
547.695 0.462633
548.371 0.503537
549.048 0.458008
549.724 0.432952
550.401 0.408859
551.077 0.385232
551.754 0.389607
552.431 0.438676
553.108 0.346951
553.785 0.350719
554.462 0.364898
555.139 0.333984
555.816 0.324518
556.494 0.308522
557.171 0.277909
557.849 0.270063
558.527 0.288652
559.204 0.289225
559.882 0.259392
560.56 0.267557
561.238 0.252504
561.917 0.228934
562.595 0.252905
563.273 0.213100
563.952 0.189344
564.63 0.192202
565.309 0.198956
565.988 0.194425
566.667 0.166445
567.346 0.172714
568.025 0.165594
568.704 0.156948
569.384 0.133426
570.063 0.139662
570.742 0.132647
571.422 0.120809
572.102 0.132852
572.782 0.125735
573.462 0.120623
574.141 0.118082
574.822 0.096613
575.502 0.112799
576.182 0.118972
576.863 0.091968
577.543 0.094527
578.224 0.093303
578.904 0.078819
579.585 0.085015
580.266 0.073918
580.947 0.072139
581.628 0.068794
582.309 0.066015
582.991 0.058509
583.672 0.048970
584.354 0.050380
585.035 0.056068
585.717 0.048666
586.399 0.051337
587.08 0.053016
587.762 0.039701
588.444 0.049403
589.127 0.030260
589.809 0.036779
590.491 0.037972
591.174 0.043376
591.856 0.036782
592.539 0.034125
593.222 0.043019
593.905 0.027866
594.587 0.037642
595.27 0.033374
595.954 0.033812
596.637 0.029881
597.32 0.029915
598.004 0.028798
598.687 0.044157
599.371 0.037204
600.055 0.026736
600.738 0.028390
601.422 0.018561
602.106 0.027266
602.79 0.023499
603.475 0.025644
604.159 0.029847
604.843 0.030510
605.528 0.021036
606.212 0.007240
606.897 0.006955
607.582 0.021855
608.267 0.002047
608.952 0.017248
609.637 0.010084
610.322 0.016257
611.007 0.018738
611.693 0.012977
612.378 0.023481
613.064 0.017535
613.749 0.013981
614.435 0.014345
615.121 0.008096
615.807 0.008769
616.493 0.005570
617.179 -0.000926
617.865 0.006135
618.552 -0.001592
619.238 0.015093
619.924 0.010581
620.611 0.003099
621.298 0.001237
621.985 0.004659
622.671 0.015145
623.358 0.007625
624.045 0.018724
624.733 -0.009154
625.42 0.001546
626.107 -0.003441
626.795 0.000511
627.482 0.008939
628.17 -0.005211
628.858 -0.002569
629.545 -0.002252
630.233 0.008827
630.921 0.008459
631.609 0.017384
632.298 0.009585
632.986 0.021599
633.674 0.023828
634.363 0.018896
635.051 -0.007615
635.74 0.022069
636.429 -0.005067
637.118 0.002214
637.807 0.009263
638.496 0.021661
639.185 0.009811
639.874 0.000965
640.563 -0.014620
641.253 -0.006265
641.942 0.018195
642.632 -0.004705
643.322 -0.017623
644.011 -0.004917
644.701 -0.007187
645.391 0.009399
646.081 0.014671
646.771 -0.032244
647.462 0.022539
648.152 -0.016284
648.842 0.013203
649.533 0.013665
650.224 0.008870
650.914 -0.028409
651.605 0.017566
652.296 0.006811
652.987 -0.014423
653.678 0.010061
654.369 0.030668
655.061 0.008834
655.752 0.026959
656.443 -0.001453
657.135 0.020125
657.826 0.013242
658.518 0.005213
659.21 -0.004894
659.902 -0.053136
660.594 -0.010928
661.286 0.037773
661.978 0.030410
662.67 0.006927
663.363 -0.044439
664.055 -0.038849
664.748 0.006250
665.44 0.054757
666.133 0.005143
666.826 0.032639
667.519 0.017968
668.212 -0.016573
668.905 -0.007875
669.598 0.008537
670.291 0.026076
670.985 -0.001737
671.678 0.043570
672.372 0.003265
673.065 -0.013175
673.759 -0.022244
674.453 0.004560
675.147 0.050311
675.841 0.047462
676.535 0.001006
677.229 0.012454
677.923 0.025028
678.617 0.015251
679.312 0.013586
680.006 0.055557
680.701 0.006270
681.396 -0.004639
682.091 0.021235
682.785 0.003163
683.48 -0.001228
684.175 0.025564
684.87 0.009973
685.566 0.004068
686.261 0.021639
686.957 -0.010904
687.652 0.006392
688.348 0.030752
689.043 0.036345
689.739 -0.010044
690.435 -0.004749
691.131 -0.010295
691.827 0.009036
692.523 0.006270
693.219 0.013529
693.915 0.003736
694.612 0.013988
695.308 0.051291
696.005 0.020219
696.702 0.001158
697.398 0.030412
698.095 0.044341
698.792 0.004433
699.489 0.016290
700.186 0.002240
700.883 -0.004850
701.581 -0.024982
702.278 -0.011768
702.975 -0.010772
703.673 0.026047
704.37 -0.004026
705.068 -0.026778
705.766 0.017160
706.464 0.028007
707.162 -0.040240
707.86 0.024729
708.558 0.002448
709.256 -0.002244
709.955 -0.029465
710.653 -0.010458
711.351 -0.008591
712.05 0.016191
712.749 0.012180
713.447 -0.003743
714.146 0.013609
714.845 -0.010257
715.544 -0.002957
716.243 -0.005789
716.942 0.006997
717.642 -0.007450
718.341 0.007906
719.04 0.032285
719.74 0.057765
720.439 0.036176
721.139 -0.004591
721.839 0.020751
722.539 0.018418
723.239 0.013198
723.939 0.004742
724.639 0.031908
725.339 0.028673
726.039 -0.003311
726.74 0.044023
727.44 0.026246
728.141 0.023161
728.841 0.011128
729.542 0.006665
730.243 0.006117
730.944 0.025152
731.645 0.039977
732.346 0.004746
733.047 0.007281
733.748 0.010745
734.449 0.032425
735.151 -0.015221
735.852 0.014064
736.554 0.015272
737.256 0.013572
737.957 -0.005586
738.659 0.000658
739.361 -0.000652
740.063 -0.011215
740.765 0.025368
741.467 0.027945
742.169 0.000751
742.872 -0.013469
743.574 0.021779
744.277 0.000132
744.979 0.019370
745.682 -0.007246
746.385 -0.019915
747.087 -0.003265
747.79 0.050819
748.493 0.025066
749.196 0.013173
749.899 0.008832
750.603 -0.001913
751.306 0.018191
752.01 0.024875
752.713 0.001942
753.417 0.009411
754.12 0.006916
754.824 0.028895
755.528 0.014112
756.232 0.001609
756.936 -0.003555
757.64 0.027178
758.344 0.023354
759.048 0.014903
759.752 0.033578
760.457 0.002560
761.161 0.004443
761.866 0.007527
762.571 0.008964
763.275 0.003641
763.98 0.035393
764.685 0.012050
765.39 0.025872
766.095 -0.002638
766.8 -0.005818
767.505 0.003110
768.211 0.010988
768.916 0.019412
769.621 -0.013105
770.327 -0.007867
771.033 0.005709
771.738 0.020077
772.444 0.034990
773.15 -0.002586
773.856 0.019457
774.562 -0.006825
775.268 -0.012864
775.974 0.003303
776.68 0.024565
777.387 0.043323
778.093 -0.003151
778.8 -0.000166
779.506 -0.003063
780.213 -0.005923
780.92 0.020839
781.626 -0.000218
782.333 -0.005791
783.04 -0.015465
783.747 0.007685
784.455 -0.024303
785.162 0.017824
785.869 0.051437
786.577 -0.020103
787.284 0.046961
787.992 -0.006977
788.699 0.006774
789.407 0.036598
790.115 -0.015782
790.823 0.020162
791.531 -0.010660
792.239 -0.004289
792.947 -0.005157
793.655 0.025797
794.363 0.011758
795.072 0.061563
795.78 -0.024813
796.489 0.003746
797.197 -0.014329
797.906 0.000425
798.615 0.015133
799.323 0.012229
800.032 0.036320
800.741 0.006593
801.45 0.054461
802.159 0.022596
802.869 0.032248
803.578 0.048306
804.287 0.069932
804.997 -0.046425
805.706 -0.018607
806.416 0.025554
807.126 0.023546
807.835 -0.023511
808.545 0.003840
809.255 -0.007080
809.965 -0.038071
810.675 -0.026164
811.385 0.001393
812.096 0.022498
812.806 0.043539
813.516 -0.044559
814.227 0.066338
814.937 0.025985
815.648 -0.047194
816.359 0.033417
817.069 -0.031362
817.78 0.005281
818.491 -0.027290
819.202 0.066817
819.913 -0.006922
820.624 0.039484
821.336 0.056041
822.047 0.068520
822.758 0.009988
823.47 0.054894
824.181 0.063636
824.893 -0.014130
825.605 0.034216
826.317 0.050581
827.028 0.018643
827.74 0.045814
828.452 -0.002722
829.164 -0.006261
829.876 -0.028415
830.589 -0.034034
831.301 0.097409
832.013 0.005097
832.726 0.107944
833.438 -0.059274
834.151 0.098900
834.864 0.083623
835.577 -0.051876
836.289 0.101392
837.002 0.098460
837.715 -0.009532
838.428 -0.107017
839.141 -0.033339
839.855 0.033387
840.568 0.015657
841.281 -0.033614
841.995 -0.046449
842.708 0.151501
843.422 -0.024191
844.135 0.152590
844.849 0.108512
845.563 -0.022771
846.277 0.049759
846.991 -0.010833
847.705 0.042936
848.419 0.028902
849.133 0.102260
849.847 0.098108
850.562 0.092447
851.276 0.110051
851.991 0.081345
852.705 0.030513
853.42 -0.023120
854.135 -0.021721
854.85 0.085216
855.564 -0.000563
856.279 0.047925
856.994 -0.043891
857.709 0.086023
858.424 -0.072969
859.14 0.005770
859.855 -0.071209
860.57 0.080817
861.286 -0.016950
862.001 0.068587
862.717 -0.038085
863.433 0.010891
864.148 -0.052486
864.864 0.152768
865.58 -0.055294
866.296 0.186729
867.012 -0.008232
867.728 -0.017566
868.444 0.034714
869.161 -0.004735
869.877 0.063777
870.593 -0.010637
871.31 0.090841
872.026 -0.102891
872.743 0.080402
873.46 0.196931
874.176 0.069376
874.893 -0.081587
875.61 -0.010467
876.327 0.005856
877.044 0.047958
877.761 0.001416
878.478 0.006375
879.196 0.018912
879.913 0.067427
880.63 0.056601
881.348 0.055154
882.065 0.021709
882.783 0.076514
883.501 0.027452
884.218 -0.077383
884.936 0.073813
885.654 0.072834
886.372 0.062524
887.09 0.098330
887.808 0.082010
888.527 -0.008830
889.245 0.200391
889.963 0.107245
890.682 -0.040453
891.4 0.126073
892.119 -0.046344
892.837 -0.018546
893.556 0.027607
894.275 0.056474
894.994 0.065503
895.712 0.098223
896.431 -0.015864
897.15 0.048490
897.87 0.070558
898.589 -0.009602
899.308 0.092006
900.027 -0.107109
900.747 0.051401
901.466 0.058626
902.186 0.087244
902.905 0.168723
903.625 0.050463
904.345 0.028446
905.064 0.136724
905.784 0.194431
906.504 -0.042964
907.224 0.117297
907.944 -0.025524
908.664 -0.135832
909.385 0.248922
910.105 0.161462
910.825 0.137414
911.546 0.009767
912.266 0.137022
912.987 0.005978
913.707 -0.170303
914.428 0.105725
915.149 -0.030041
915.87 0.033298
916.591 0.113591
917.312 0.082594
918.033 0.013677
918.754 0.163033
919.475 0.029332
920.196 -0.141664
920.918 0.465699
921.639 0.118933
922.361 0.014222
923.082 0.292408
923.804 0.723448
924.525 0.084123
925.247 -0.154345
925.969 0.157811
926.691 0.259699
927.413 0.092232
928.135 0.642051
928.857 0.142697
929.579 0.232004
930.301 -0.009029
931.023 0.023729
931.746 0.190307
932.468 0.302209
933.191 0.269246
933.913 0.014300
934.636 -0.272820
935.358 0.072869
936.081 -0.011051
936.804 0.228025
937.527 0.036448
938.25 0.271967
938.973 0.628729
939.696 0.279456
940.419 0.445371
941.142 0.308509
941.865 0.005784
942.589 -0.031126
943.312 0.616323
944.036 0.277999
944.759 0.158137
945.483 3.272770
946.207 0.633659
946.93 -0.675798
947.654 0.152843
948.378 2.902547
949.102 0.069829
949.826 3.104828
950.55 3.250176
951.274 0.054152
951.998 -0.043677
952.723 -0.188164
953.447 0.552764
954.171 -0.557528
954.896 -0.280525
955.62 0.455617
956.345 -0.082100
957.07 1.037687
957.794 0.691064
958.519 -0.172391
959.244 -0.183377
959.969 2.918555
960.694 1.106165
961.419 -0.295689
962.144 0.232112
962.869 -0.431732
963.594 0.982377
964.32 3.145818
965.045 -0.164629
965.77 -0.353189
966.496 2.663701
967.222 0.505405
967.947 -0.478120
968.673 3.067443
969.399 -0.199688
970.125 2.575188
970.85 0.178638
971.576 -0.107927
972.302 3.275081
973.028 3.206826
973.755 3.218010
974.481 1.491970
975.207 0.546987
975.933 0.166169
976.66 0.076319
977.386 2.745075
978.113 -0.247784
978.839 3.206826
979.566 2.663701
980.293 0.070581
981.019 -0.464404
981.746 1.845098
982.473 0.335235
983.2 0.385034
983.927 -0.240877
984.654 2.760422
985.381 3.229170
986.109 -2.582063
986.836 -0.021353
987.563 2.700704
988.291 -0.198619
989.018 3.115278
989.746 -0.972363
990.473 0.308141
991.201 0.715691
991.928 -2.557507
992.656 0.317190
993.384 0.116347
994.112 -0.209180
994.84 -2.893762
995.568 2.884795
996.296 0.797985
997.024 -1.184286
997.752 -0.454078
998.481 0.483881
999.209 0.000000
999.937 2.318063
1000.67 -0.165403
1001.39 0.416695
1002.12 -0.157280
1002.85 2.913284
1003.58 0.000000
1004.31 2.719331
1005.04 3.129368
1005.77 2.783904
1006.5 -0.114457
1007.22 2.653213
1007.95 3.146128
1008.68 2.691965
1009.41 -1.361728
1010.14 2.432969
1010.87 0.020670
1011.6 -1.450328
1012.33 0.076823
1013.06 0.000000
1013.79 0.350831
1014.52 0.630488
1015.25 -0.117150
1015.98 -0.107258
1016.71 2.190332
1017.44 2.562293
1018.17 3.231724
1018.9 3.021603
1019.63 -0.018098
1020.36 0.134279
1021.09 0.484356
1021.82 -2.668386
1022.55 2.902003
1023.03 0.106196