File: Auto_Polymerization/Data/UV_VIS_Spectra/MRG-061-F-2_spectra_while_stopped/spectrum_2025-06-19_11-13-16_absorbance.txt
# Wavelength	Absorbance
197.78 -0.086209
198.392 2.682145
199.004 -0.004689
199.617 -0.013117
200.229 0.072958
200.842 0.050133
201.455 3.220892
202.067 -0.116372
202.68 -0.440037
203.294 2.745075
203.907 0.210853
204.52 3.062958
205.134 0.159779
205.748 2.682145
206.361 0.000000
206.975 -0.650016
207.589 0.000000
208.204 3.152288
208.818 -0.448938
209.433 2.907949
210.047 0.307289
210.662 3.055378
211.277 0.698434
211.892 2.480007
212.507 3.209783
213.122 2.866287
213.738 0.413718
214.353 0.000000
214.969 0.687011
215.585 -0.017556
216.201 0.145314
216.817 2.833784
217.433 0.075661
218.049 0.000000
218.666 3.186674
219.282 2.960946
219.899 0.806743
220.516 0.000000
221.133 0.639552
221.75 0.611846
222.368 0.764065
222.985 -1.995635
223.603 -0.192969
224.22 2.935507
224.838 2.890421
225.456 0.301030
226.074 -0.179118
226.692 -2.811575
227.311 0.018863
227.929 0.634805
228.548 0.391389
229.167 -2.993436
229.786 -0.047158
230.405 1.963788
231.024 0.538239
231.643 0.079015
232.262 0.325398
232.882 0.450664
233.501 -0.365404
234.121 0.000000
234.741 3.097604
235.361 3.122544
235.982 0.015750
236.602 0.000000
237.222 0.462763
237.843 1.851258
238.464 -0.128676
239.084 0.000000
239.706 0.433938
240.327 2.190332
240.948 2.990339
241.569 2.632457
242.191 -0.125006
242.812 2.587711
243.434 2.913284
244.056 0.000000
244.678 3.082426
245.3 2.357935
245.923 3.026125
246.545 2.396199
247.167 0.054005
247.79 1.845098
248.413 0.663224
249.036 3.030600
249.659 3.192567
250.282 0.979975
250.906 2.480007
251.529 -0.757813
252.153 0.609253
252.776 2.397940
253.4 0.295517
254.024 -0.139254
254.648 -0.422632
255.273 0.380767
255.897 -0.190175
256.521 0.678150
257.146 2.902003
257.771 0.000000
258.396 3.082785
259.021 3.026125
259.646 3.198382
260.271 2.621176
260.897 3.252853
261.522 3.142702
262.148 2.989895
262.774 2.907411
263.399 3.206826
264.026 2.396199
264.652 0.636706
265.278 0.372291
265.904 -0.163760
266.531 2.294466
267.158 -0.108641
267.784 -0.216184
268.411 3.021603
269.038 2.123852
269.666 0.886491
270.293 0.000000
270.921 0.215736
271.548 -0.282547
272.176 0.816711
272.804 -0.048805
273.432 0.339818
274.06 2.945961
274.688 0.873924
275.316 3.055378
275.945 0.504774
276.573 0.348744
277.202 3.047275
277.831 0.572053
278.46 -0.039004
279.089 2.691965
279.718 0.210564
280.348 -0.028408
280.977 -0.205938
281.607 -2.390935
282.237 2.935003
282.866 2.791691
283.497 -0.124433
284.127 0.845098
284.757 3.025715
285.387 0.000000
286.018 1.407755
286.648 2.940516
287.279 2.846955
287.91 2.621176
288.541 0.527528
289.172 0.000000
289.803 0.000000
290.435 -2.923244
291.067 -0.033711
291.698 2.768638
292.33 3.042969
292.962 -2.851870
293.594 0.050274
294.226 0.000000
294.858 0.222947
295.491 -2.352183
296.123 0.235735
296.756 3.220892
297.389 2.935003
298.022 1.401031
298.654 0.605828
299.288 -3.186108
299.921 0.241081
300.554 2.769377
301.188 1.560419
301.822 3.364739
302.455 3.097604
303.089 2.357935
303.723 2.924279
304.357 2.432969
304.992 0.189121
305.626 2.294466
306.261 0.225726
306.895 2.575188
307.53 0.414736
308.165 0.000000
308.8 3.034227
309.435 2.450249
310.07 0.058638
310.706 3.168203
311.341 3.296446
311.977 -0.139467
312.613 -0.173271
313.249 0.084798
313.885 0.152367
314.521 3.104828
315.157 0.262489
315.793 -0.280781
316.43 0.293960
317.067 1.072510
317.703 3.336260
318.34 3.097604
318.977 3.437592
319.614 0.207194
320.252 0.756869
320.889 2.465383
321.526 3.516800
322.164 3.132580
322.802 3.327767
323.44 1.046498
324.078 3.558108
324.716 0.700184
325.354 0.380189
325.992 0.675223
326.631 0.769920
327.269 0.736638
327.908 3.508395
328.547 1.750198
329.186 3.564311
329.825 0.633284
330.464 0.427083
331.104 1.264017
331.743 0.884909
332.383 0.974334
333.022 1.847418
333.662 0.709014
334.302 0.728527
334.942 0.623926
335.582 0.874466
336.223 0.854662
336.863 1.927865
337.504 3.672098
338.144 3.781037
338.785 3.703205
339.426 1.031809
340.067 0.902539
340.708 3.745543
341.349 3.731266
341.991 1.311338
342.632 3.830460
343.274 1.028462
343.916 0.954173
344.558 3.886829
345.2 3.834484
345.842 0.858528
346.484 1.636164
347.126 3.906012
347.769 3.886321
348.411 0.732268
349.054 1.144330
349.697 3.921634
350.34 0.934839
350.983 3.917820
351.626 1.143343
352.27 3.959471
352.913 1.505922
353.557 1.399217
354.2 3.930898
354.844 1.915092
355.488 3.989138
356.132 0.994752
356.776 3.974327
357.421 3.988202
358.065 1.057941
358.709 0.983496
359.354 3.988202
359.999 2.811336
360.644 3.982497
361.289 4.042142
361.934 1.227568
362.579 4.062845
363.224 4.031206
363.87 4.028164
364.515 4.049102
365.161 0.955254
365.807 1.810888
366.453 2.122927
367.099 1.238773
367.745 1.202456
368.392 1.351342
369.038 2.154538
369.685 0.988371
370.331 0.983236
370.978 1.219249
371.625 2.011489
372.272 4.101128
372.919 1.308703
373.566 1.582928
374.214 1.279196
374.861 4.167317
375.509 4.212241
376.156 4.224455
376.804 1.843785
377.452 1.191722
378.1 1.330021
378.748 4.301356
379.397 4.318189
380.045 1.535251
380.694 4.279302
381.342 4.319959
381.991 1.320241
382.64 1.407560
383.289 1.103806
383.938 1.819643
384.587 1.649821
385.237 1.716845
385.886 1.168735
386.536 4.371972
387.186 1.485329
387.836 1.800860
388.485 1.106534
389.135 1.456313
389.786 1.092469
390.436 1.030617
391.086 0.897939
391.737 1.127233
392.387 0.908791
393.038 0.773325
393.689 0.694701
394.34 0.785935
394.991 0.619776
395.642 0.706532
396.294 0.636582
396.945 0.600510
397.597 0.529120
398.248 0.536233
398.9 0.510192
399.552 0.492347
400.204 0.455716
400.856 0.441858
401.509 0.401318
402.161 0.381211
402.813 0.411506
403.466 0.364932
404.119 0.340193
404.772 0.333436
405.425 0.266986
406.078 0.347766
406.731 0.289361
407.384 0.330142
408.038 0.264211
408.691 0.249691
409.345 0.268294
409.998 0.290472
410.652 0.273600
411.306 0.206246
411.961 0.240820
412.615 0.217973
413.269 0.195675
413.923 0.260463
414.578 0.207737
415.233 0.197211
415.887 0.205846
416.542 0.217973
417.197 0.213990
417.852 0.184506
418.508 0.204070
419.163 0.166943
419.818 0.185354
420.474 0.196207
421.13 0.195471
421.786 0.211092
422.442 0.210445
423.098 0.170822
423.754 0.201576
424.41 0.164331
425.066 0.192868
425.723 0.196480
426.379 0.161135
427.036 0.190378
427.693 0.180686
428.35 0.192746
429.007 0.170489
429.664 0.159310
430.321 0.179511
430.979 0.187923
431.636 0.182984
432.294 0.169682
432.952 0.210296
433.609 0.182942
434.267 0.229315
434.925 0.194580
435.584 0.199117
436.242 0.200073
436.9 0.215731
437.559 0.192753
438.217 0.203178
438.876 0.203829
439.535 0.204360
440.194 0.226322
440.853 0.227590
441.512 0.231513
442.171 0.264684
442.831 0.228584
443.49 0.246252
444.15 0.244813
444.81 0.249090
445.469 0.260728
446.129 0.273414
446.789 0.294507
447.45 0.262182
448.11 0.245358
448.77 0.298018
449.431 0.300560
450.091 0.313194
450.752 0.306582
451.413 0.315844
452.074 0.310053
452.735 0.350527
453.396 0.336601
454.057 0.345789
454.719 0.318892
455.38 0.364384
456.042 0.384879
456.704 0.339579
457.365 0.372770
458.027 0.411939
458.689 0.426022
459.352 0.404383
460.014 0.388596
460.676 0.429750
461.339 0.423349
462.001 0.419156
462.664 0.451492
463.327 0.493134
463.99 0.535836
464.653 0.471752
465.316 0.512463
465.979 0.501206
466.642 0.549608
467.306 0.547982
467.97 0.558254
468.633 0.525426
469.297 0.534771
469.961 0.611493
470.625 0.629864
471.289 0.642371
471.953 0.633465
472.618 0.637401
473.282 0.623167
473.947 0.691112
474.611 0.734946
475.276 0.678525
475.941 0.691243
476.606 0.705412
477.271 0.744633
477.936 0.754315
478.602 0.877771
479.267 0.812002
479.933 0.962858
480.598 0.758846
481.264 0.790556
481.93 0.721312
482.596 0.828175
483.262 0.786442
483.928 0.871716
484.594 0.890239
485.261 1.009050
485.927 0.978043
486.594 0.917607
487.26 0.947133
487.927 1.008922
488.594 0.901797
489.261 0.940295
489.928 0.987399
490.596 1.128234
491.263 1.146700
491.93 1.017718
492.598 1.027206
493.266 1.246919
493.933 1.010732
494.601 1.225048
495.269 1.302839
495.937 1.362021
496.606 1.197878
497.274 1.106882
497.942 1.087525
498.611 1.133119
499.279 1.318110
499.948 1.100249
500.617 1.356458
501.286 1.091985
501.955 1.075442
502.624 1.264440
503.293 1.076802
503.963 1.181648
504.632 1.134875
505.302 1.260136
505.972 1.235010
506.641 1.300803
507.311 1.070868
507.981 1.265234
508.651 1.110442
509.322 1.243967
509.992 1.522858
510.662 1.140827
511.333 1.383433
512.004 1.335187
512.674 1.305340
513.345 1.195853
514.016 1.052762
514.687 1.353626
515.358 1.056987
516.029 1.249246
516.701 1.125975
517.372 1.110122
518.044 1.203547
518.716 1.303908
519.387 1.066060
520.059 1.214300
520.731 1.133309
521.403 1.044411
522.076 1.043633
522.748 1.105634
523.42 1.157050
524.093 0.961724
524.765 1.271908
525.438 1.083940
526.111 0.987991
526.784 0.964463
527.457 1.010513
528.13 1.071547
528.803 0.800098
529.476 0.843108
530.15 1.087777
530.823 0.865920
531.497 0.998566
532.171 0.770335
532.845 0.860643
533.519 0.775324
534.193 0.722347
534.867 0.811573
535.541 0.752629
536.216 0.775817
536.89 0.753531
537.564 0.717493
538.239 0.699761
538.914 0.638676
539.589 0.633308
540.264 0.615336
540.939 0.602254
541.614 0.569863
542.289 0.561210
542.965 0.575969
543.64 0.536725
544.316 0.603595
544.991 0.551264
545.667 0.480167
546.343 0.566993
547.019 0.430952
547.695 0.493869
548.371 0.415858
549.048 0.462631
549.724 0.434110
550.401 0.364833
551.077 0.440832
551.754 0.379298
552.431 0.365831
553.108 0.342000
553.785 0.360540
554.462 0.330823
555.139 0.327319
555.816 0.299083
556.494 0.313023
557.171 0.311362
557.849 0.333466
558.527 0.263244
559.204 0.251728
559.882 0.251784
560.56 0.280259
561.238 0.232372
561.917 0.232186
562.595 0.227976
563.273 0.206942
563.952 0.193139
564.63 0.205978
565.309 0.188240
565.988 0.190992
566.667 0.188565
567.346 0.165518
568.025 0.141494
568.704 0.153242
569.384 0.144640
570.063 0.138111
570.742 0.132288
571.422 0.133037
572.102 0.125673
572.782 0.133780
573.462 0.110225
574.141 0.118981
574.822 0.112978
575.502 0.110363
576.182 0.108498
576.863 0.092585
577.543 0.100408
578.224 0.090660
578.904 0.084726
579.585 0.079516
580.266 0.068117
580.947 0.063456
581.628 0.069926
582.309 0.068788
582.991 0.053883
583.672 0.055538
584.354 0.050028
585.035 0.055157
585.717 0.051243
586.399 0.046352
587.08 0.044663
587.762 0.039350
588.444 0.044135
589.127 0.035629
589.809 0.037635
590.491 0.039900
591.174 0.037759
591.856 0.041127
592.539 0.026628
593.222 0.043303
593.905 0.032444
594.587 0.027142
595.27 0.042691
595.954 0.037794
596.637 0.034337
597.32 0.032194
598.004 0.027215
598.687 0.039451
599.371 0.043362
600.055 0.031452
600.738 0.022016
601.422 0.015558
602.106 0.033108
602.79 0.024533
603.475 0.023719
604.159 0.015725
604.843 0.017163
605.528 0.005266
606.212 0.007369
606.897 -0.000193
607.582 0.021198
608.267 0.008222
608.952 0.011539
609.637 0.008278
610.322 0.011545
611.007 0.007253
611.693 0.011041
612.378 0.011623
613.064 0.001497
613.749 0.007527
614.435 0.020288
615.121 0.010334
615.807 0.016176
616.493 0.012117
617.179 0.008768
617.865 0.018543
618.552 -0.002406
619.238 0.005554
619.924 0.000938
620.611 0.005206
621.298 -0.003657
621.985 0.000439
622.671 0.016219
623.358 0.010964
624.045 0.005542
624.733 -0.016153
625.42 0.016255
626.107 -0.002499
626.795 0.001148
627.482 -0.007642
628.17 -0.004504
628.858 -0.008299
629.545 0.006062
630.233 0.004954
630.921 0.004441
631.609 -0.002463
632.298 -0.004022
632.986 0.008840
633.674 0.006170
634.363 -0.009430
635.051 0.014933
635.74 -0.003758
636.429 0.022935
637.118 0.011600
637.807 -0.013471
638.496 0.001871
639.185 -0.004681
639.874 -0.016977
640.563 -0.017530
641.253 0.005460
641.942 0.011763
642.632 -0.012647
643.322 0.007246
644.011 -0.028244
644.701 0.000147
645.391 0.002754
646.081 -0.020139
646.771 -0.040135
647.462 0.009438
648.152 0.001673
648.842 -0.025911
649.533 0.010154
650.224 0.012807
650.914 -0.012007
651.605 0.020267
652.296 -0.003533
652.987 0.016989
653.678 0.027124
654.369 0.006664
655.061 -0.001879
655.752 0.025694
656.443 0.001458
657.135 0.017173
657.826 0.014965
658.518 0.001478
659.21 -0.012029
659.902 -0.054707
660.594 -0.002587
661.286 -0.002767
661.978 -0.005835
662.67 0.024358
663.363 -0.026732
664.055 0.017086
664.748 0.028706
665.44 0.033266
666.133 0.014048
666.826 -0.003542
667.519 0.023765
668.212 0.013991
668.905 0.039373
669.598 -0.026115
670.291 0.084861
670.985 -0.024599
671.678 0.014838
672.372 0.002263
673.065 -0.017445
673.759 0.007740
674.453 0.013906
675.147 0.010190
675.841 0.020626
676.535 -0.031819
677.229 0.014575
677.923 -0.005506
678.617 -0.005242
679.312 0.001379
680.006 0.023829
680.701 0.030798
681.396 0.011058
682.091 -0.018262
682.785 -0.019705
683.48 -0.017045
684.175 0.009819
684.87 -0.004999
685.566 0.004096
686.261 0.023537
686.957 -0.030646
687.652 -0.015968
688.348 -0.015673
689.043 0.002024
689.739 -0.006287
690.435 -0.006283
691.131 -0.002081
691.827 0.018441
692.523 0.003747
693.219 0.013102
693.915 0.007541
694.612 -0.011497
695.308 0.032328
696.005 0.034550
696.702 -0.000283
697.398 0.026678
698.095 0.035561
698.792 -0.016735
699.489 -0.011820
700.186 0.022611
700.883 -0.014230
701.581 0.046746
702.278 -0.012281
702.975 0.012620
703.673 0.040594
704.37 -0.005536
705.068 0.001369
705.766 -0.000767
706.464 -0.006505
707.162 -0.018333
707.86 0.041503
708.558 0.018695
709.256 0.022692
709.955 0.003923
710.653 -0.040158
711.351 -0.032574
712.05 -0.012492
712.749 -0.010036
713.447 0.001658
714.146 -0.017672
714.845 -0.003177
715.544 0.022850
716.243 -0.041672
716.942 -0.023361
717.642 -0.034720
718.341 -0.002058
719.04 0.018022
719.74 -0.018304
720.439 0.023246
721.139 -0.017371
721.839 0.016836
722.539 -0.017625
723.239 0.009247
723.939 -0.011963
724.639 0.011405
725.339 0.002244
726.039 0.004074
726.74 0.037622
727.44 0.036907
728.141 0.014005
728.841 -0.023252
729.542 0.008233
730.243 0.004386
730.944 0.016165
731.645 0.024026
732.346 -0.006221
733.047 -0.009243
733.748 0.010783
734.449 -0.002897
735.151 -0.018873
735.852 0.011072
736.554 0.009308
737.256 0.010378
737.957 0.009604
738.659 -0.015156
739.361 -0.006206
740.063 -0.008458
740.765 0.000044
741.467 0.013630
742.169 0.010787
742.872 -0.012888
743.574 -0.006508
744.277 -0.011389
744.979 -0.005375
745.682 0.002765
746.385 0.015424
747.087 -0.004721
747.79 -0.005115
748.493 -0.011967
749.196 -0.010493
749.899 0.013749
750.603 -0.015034
751.306 -0.010431
752.01 -0.001550
752.713 0.026622
753.417 0.015255
754.12 0.005876
754.824 -0.013622
755.528 -0.015149
756.232 -0.011993
756.936 -0.002644
757.64 0.001077
758.344 0.021386
759.048 -0.014615
759.752 -0.012797
760.457 0.021178
761.161 0.000944
761.866 0.021415
762.571 0.013060
763.275 0.000379
763.98 0.013774
764.685 0.009344
765.39 -0.002694
766.095 0.015931
766.8 0.012782
767.505 0.017794
768.211 0.001679
768.916 0.037913
769.621 0.001862
770.327 -0.002501
771.033 0.003032
771.738 0.019315
772.444 0.013365
773.15 -0.024945
773.856 0.018534
774.562 -0.001376
775.268 -0.026018
775.974 0.041890
776.68 0.009036
777.387 -0.004629
778.093 0.004095
778.8 0.019192
779.506 0.009751
780.213 -0.030702
780.92 0.031523
781.626 -0.000934
782.333 0.001029
783.04 -0.006291
783.747 -0.000420
784.455 0.032370
785.162 0.010988
785.869 -0.011106
786.577 -0.006725
787.284 0.008732
787.992 0.013291
788.699 -0.005504
789.407 0.010467
790.115 0.031135
790.823 -0.027211
791.531 0.009616
792.239 -0.025871
792.947 -0.020590
793.655 0.021914
794.363 0.030493
795.072 0.010109
795.78 0.017331
796.489 0.045932
797.197 0.001665
797.906 0.038887
798.615 -0.015124
799.323 -0.018554
800.032 0.012414
800.741 -0.005062
801.45 0.021337
802.159 0.020630
802.869 -0.023874
803.578 0.053179
804.287 0.017895
804.997 -0.017471
805.706 -0.031549
806.416 0.016474
807.126 0.013401
807.835 -0.007936
808.545 0.004349
809.255 -0.013439
809.965 0.027340
810.675 -0.007306
811.385 0.021815
812.096 -0.032927
812.806 -0.029883
813.516 0.010987
814.227 0.034436
814.937 0.014044
815.648 -0.037865
816.359 0.004660
817.069 0.018179
817.78 -0.021339
818.491 0.020071
819.202 -0.006349
819.913 0.041820
820.624 0.020396
821.336 0.068883
822.047 0.017416
822.758 0.007486
823.47 0.025783
824.181 0.009817
824.893 0.028446
825.605 0.021047
826.317 0.028291
827.028 -0.003856
827.74 0.043271
828.452 -0.019154
829.164 -0.046823
829.876 0.019991
830.589 -0.006901
831.301 0.017061
832.013 0.012604
832.726 0.050364
833.438 -0.015751
834.151 0.081424
834.864 0.094833
835.577 0.070308
836.289 0.093562
837.002 0.048157
837.715 -0.089202
838.428 0.035618
839.141 0.036367
839.855 -0.080452
840.568 0.087144
841.281 0.057512
841.995 -0.003649
842.708 -0.075110
843.422 0.082648
844.135 0.101694
844.849 0.100893
845.563 0.128445
846.277 -0.103664
846.991 -0.047737
847.705 0.117319
848.419 -0.066390
849.133 0.051692
849.847 0.258028
850.562 -0.065207
851.276 -0.068123
851.991 -0.009992
852.705 0.010631
853.42 -0.016672
854.135 0.067730
854.85 0.046343
855.564 -0.018152
856.279 0.055941
856.994 -0.016783
857.709 0.043276
858.424 -0.012455
859.14 0.097199
859.855 -0.042840
860.57 0.018576
861.286 0.107410
862.001 0.050772
862.717 0.083018
863.433 0.034382
864.148 -0.063549
864.864 -0.016837
865.58 -0.086118
866.296 0.057944
867.012 0.108263
867.728 -0.088330
868.444 0.104892
869.161 0.013579
869.877 -0.003907
870.593 -0.011732
871.31 -0.049907
872.026 -0.034406
872.743 -0.053028
873.46 0.165667
874.176 -0.134180
874.893 0.103352
875.61 0.120215
876.327 0.137015
877.044 0.102668
877.761 -0.024191
878.478 0.008170
879.196 0.042793
879.913 0.058467
880.63 0.046937
881.348 -0.006032
882.065 0.099195
882.783 0.058051
883.501 0.046843
884.218 0.026399
884.936 0.033597
885.654 -0.025121
886.372 0.061560
887.09 -0.008055
887.808 0.012299
888.527 0.136766
889.245 0.036062
889.963 -0.017468
890.682 0.093089
891.4 -0.074955
892.119 0.096397
892.837 0.026333
893.556 -0.041467
894.275 0.146091
894.994 0.107100
895.712 0.178847
896.431 0.054315
897.15 0.089379
897.87 -0.072077
898.589 -0.017621
899.308 -0.002833
900.027 -0.052272
900.747 0.026226
901.466 -0.075645
902.186 0.066863
902.905 0.235418
903.625 0.226658
904.345 0.110453
905.064 -0.034750
905.784 0.072395
906.504 -0.071655
907.224 0.287121
907.944 0.086143
908.664 -0.037074
909.385 0.093692
910.105 0.269385
910.825 -0.017526
911.546 0.054111
912.266 0.142575
912.987 0.024185
913.707 -0.070875
914.428 -0.051942
915.149 -0.036642
915.87 0.080823
916.591 -0.072875
917.312 0.113067
918.033 0.034838
918.754 0.052632
919.475 0.051667
920.196 0.105870
920.918 -0.137072
921.639 0.186641
922.361 0.321739
923.082 -0.045063
923.804 0.070667
924.525 0.424998
925.247 -0.070137
925.969 0.082932
926.691 0.272648
927.413 0.085689
928.135 0.057690
928.857 0.028586
929.579 -0.005585
930.301 0.161733
931.023 -0.042994
931.746 0.137515
932.468 0.252502
933.191 0.083908
933.913 0.076345
934.636 0.133793
935.358 0.266351
936.081 0.075392
936.804 0.521894
937.527 3.301030
938.25 0.586541
938.973 2.001115
939.696 0.526490
940.419 0.112124
941.142 -0.363566
941.865 0.152495
942.589 0.400983
943.312 2.258364
944.036 1.027526
944.759 0.552792
945.483 0.251994
946.207 0.284216
946.93 0.369525
947.654 0.621660
948.378 -0.411742
949.102 0.602844
949.826 -0.147539
950.55 0.070337
951.274 3.051538
951.998 0.935389
952.723 -0.017545
953.447 0.605628
954.171 -1.384180
954.896 -0.094712
955.62 0.470015
956.345 0.441780
957.07 0.714888
957.794 3.097604
958.519 3.125806
959.244 3.145818
959.969 -0.404698
960.694 0.566896
961.419 -0.468347
962.144 -0.536226
962.869 -0.381039
963.594 3.215373
964.32 3.145818
965.045 -0.251871
965.77 2.935507
966.496 -0.310811
967.222 -0.212320
967.947 0.093326
968.673 1.071808
969.399 -0.472132
970.125 2.575188
970.85 -0.457495
971.576 -0.289950
972.302 0.362859
973.028 3.206826
973.755 0.406435
974.481 2.853698
975.207 0.086974
975.933 -0.447115
976.66 3.082785
977.386 2.745075
978.113 2.776701
978.839 0.854643
979.566 0.143873
980.293 3.008600
981.019 -0.354733
981.746 -0.464532
982.473 0.114473
983.2 2.990339
983.927 0.580791
984.654 2.760422
985.381 0.166964
986.109 -1.544068
986.836 3.142702
987.563 -0.353526
988.291 0.188714
989.018 0.852827
989.746 -1.101974
990.473 2.935507
991.201 2.745075
991.928 -2.660865
992.656 0.462697
993.384 0.196177
994.112 0.259637
994.84 0.000000
995.568 2.884795
996.296 2.827369
997.024 -0.884775
997.752 -0.373438
998.481 2.890421
999.209 0.000000
999.937 -0.711320
1000.67 2.907949
1001.39 0.354140
1002.12 0.244610
1002.85 2.913284
1003.58 -2.660865
1004.31 0.172789
1005.04 3.129368
1005.77 0.103568
1006.5 2.812913
1007.22 2.653213
1007.95 3.146128
1008.68 2.691965
1009.41 0.000000
1010.14 2.432969
1010.87 3.165244
1011.6 -0.761118
1012.33 0.208441
1013.06 0.000000
1013.79 3.108227
1014.52 3.161967
1015.25 0.514005
1015.98 -0.552780
1016.71 -0.698409
1017.44 2.562293
1018.17 3.231724
1018.9 3.021603
1019.63 2.950851
1020.36 -0.221386
1021.09 3.287130
1021.82 0.000000
1022.55 2.902003
1023.03 2.812913