File: Auto_Polymerization/Data/UV_VIS_Spectra/MRG-061-F-2_spectra_while_stopped/spectrum_2025-06-19_11-43-57_absorbance.txt
# Wavelength	Absorbance
197.78 -0.191516
198.392 0.472630
199.004 0.152142
199.617 2.768638
200.229 0.072958
200.842 0.752784
201.455 0.266167
202.067 2.760422
202.68 -0.287242
203.294 2.745075
203.907 -0.036594
204.52 3.062958
205.134 0.047667
205.748 -0.084268
206.361 -2.851870
206.975 2.294466
207.589 -2.964731
208.204 3.152288
208.818 0.233093
209.433 2.907949
210.047 0.407716
210.662 3.055378
211.277 2.907949
211.892 0.400826
212.507 0.321042
213.122 2.866287
213.738 -0.188342
214.353 -2.149219
214.969 1.148338
215.585 2.846955
216.201 -0.138303
216.817 2.833784
217.433 -0.213950
218.049 0.000000
218.666 0.526758
219.282 2.960946
219.899 0.485886
220.516 0.000000
221.133 2.902003
221.75 3.183555
222.368 0.102380
222.985 0.000000
223.603 2.632457
224.22 2.935507
224.838 -0.237978
225.456 -0.703387
226.074 2.632457
226.692 0.000000
227.311 0.565392
227.929 0.400983
228.548 0.311652
229.167 -2.964731
229.786 2.791691
230.405 -0.753050
231.024 -0.414930
231.643 2.718502
232.262 3.280123
232.882 -0.099087
233.501 0.475492
234.121 -2.876795
234.741 -0.057428
235.361 -0.057295
235.982 2.562293
236.602 -2.716838
237.222 -0.148900
237.843 1.851258
238.464 3.063333
239.084 0.000000
239.706 -0.208417
240.327 -0.635094
240.948 0.208583
241.569 2.632457
242.191 3.206826
242.812 2.587711
243.434 -0.031199
244.056 -2.993436
244.678 3.082426
245.3 -0.033000
245.923 3.026125
246.545 -0.400375
247.167 0.303683
247.79 1.845098
248.413 1.124551
249.036 3.030600
249.659 0.146463
250.282 0.255497
250.906 -0.464476
251.529 2.008600
252.153 0.478685
252.776 0.511449
253.4 -0.127203
254.024 2.872739
254.648 -0.056049
255.273 0.059780
255.897 3.030195
256.521 2.827369
257.146 0.105429
257.771 0.000000
258.396 1.334597
259.021 3.026125
259.646 0.518047
260.271 -0.255619
260.897 1.504665
261.522 0.021142
262.148 0.178990
262.774 -0.419948
263.399 0.039213
264.026 2.396199
264.652 -0.198622
265.278 0.529441
265.904 -0.023660
266.531 -0.502108
267.158 0.675280
267.784 0.003686
268.411 -0.007781
269.038 -0.422691
269.666 1.421604
270.293 -3.029384
270.921 0.134814
271.548 2.691965
272.176 1.198428
272.804 -0.032627
273.432 -0.014595
274.06 2.945961
274.688 0.417142
275.316 0.034603
275.945 2.965672
276.573 2.840106
277.202 1.160784
277.831 0.293169
278.46 0.474609
279.089 2.691965
279.718 3.272770
280.348 0.422942
280.977 0.481221
281.607 -2.851870
282.237 2.935003
282.866 -0.182821
283.497 0.510772
284.127 -2.209132
284.757 0.041638
285.387 0.000000
286.018 1.215064
286.648 -0.003966
287.279 -0.173820
287.91 0.411661
288.541 0.476159
289.172 0.000000
289.803 0.000000
290.435 0.000000
291.067 0.010995
291.698 0.619419
292.33 0.120244
292.962 -1.544068
293.594 0.376709
294.226 0.000000
294.858 0.554988
295.491 0.000000
296.123 0.608241
296.756 3.220892
297.389 -0.425590
298.022 -0.005813
298.654 0.338687
299.288 0.000000
299.921 0.112957
300.554 0.308479
301.188 0.120410
301.822 3.364739
302.455 0.380767
303.089 -0.704271
303.723 0.306231
304.357 -0.185079
304.992 0.358106
305.626 2.294466
306.261 -0.077247
306.895 2.575188
307.53 0.127420
308.165 0.000000
308.8 0.122537
309.435 2.450249
310.07 0.164314
310.706 0.000590
311.341 0.258621
311.977 3.142702
312.613 3.012837
313.249 1.336399
313.885 -0.111196
314.521 0.323073
315.157 0.292821
315.793 0.443697
316.43 3.525174
317.067 3.463445
317.703 0.391777
318.34 3.097604
318.977 3.437592
319.614 0.818508
320.252 0.225681
320.889 -0.468610
321.526 0.664930
322.164 0.209854
322.802 0.136037
323.44 0.917605
324.078 0.537333
324.716 3.399154
325.354 3.583765
325.992 0.312112
326.631 3.581495
327.269 1.107343
327.908 0.408024
328.547 0.937718
329.186 3.564311
329.825 0.415115
330.464 0.612193
331.104 3.526469
331.743 3.583879
332.383 0.754464
333.022 0.593008
333.662 3.609381
334.302 0.618961
334.942 3.626956
335.582 3.640879
336.223 3.666237
336.863 0.977083
337.504 3.672098
338.144 1.121121
338.785 3.703205
339.426 1.402514
340.067 1.854897
340.708 2.201475
341.349 0.304105
341.991 0.599951
342.632 3.830460
343.274 0.795653
343.916 1.042513
344.558 0.840724
345.2 3.834484
345.842 0.886444
346.484 1.749396
347.126 1.643561
347.769 3.886321
348.411 1.029001
349.054 1.286599
349.697 0.875530
350.34 3.937869
350.983 1.346112
351.626 1.103048
352.27 2.415403
352.913 0.826819
353.557 3.994713
354.2 3.930898
354.844 1.227860
355.488 3.989138
356.132 4.015527
356.776 1.019603
357.421 3.988202
358.065 3.991935
358.709 1.863660
359.354 3.988202
359.999 1.034738
360.644 1.017766
361.289 0.856317
361.934 1.034812
362.579 0.969774
363.224 1.108481
363.87 1.432668
364.515 1.184591
365.161 0.844748
365.807 4.020403
366.453 4.118562
367.099 2.329434
367.745 4.114678
368.392 1.031812
369.038 0.877867
369.685 4.136974
370.331 0.783558
370.978 1.588162
371.625 4.160709
372.272 4.101128
372.919 1.186285
373.566 4.154637
374.214 4.167937
374.861 1.356413
375.509 1.008664
376.156 4.224455
376.804 1.554384
377.452 2.521628
378.1 1.733437
378.748 4.301356
379.397 2.322553
380.045 2.206579
380.694 2.531114
381.342 1.660043
381.991 4.304318
382.64 1.559798
383.289 1.499173
383.938 4.339471
384.587 2.039161
385.237 4.356332
385.886 2.281564
386.536 4.371972
387.186 4.362124
387.836 2.317175
388.485 1.976249
389.135 3.274916
389.786 1.038823
390.436 1.750912
391.086 0.890046
391.737 1.361253
392.387 1.174207
393.038 1.041012
393.689 0.976856
394.34 1.057798
394.991 0.984143
395.642 1.288901
396.294 0.845848
396.945 0.801593
397.597 0.898267
398.248 0.767446
398.9 0.762688
399.552 0.786431
400.204 0.635965
400.856 0.637727
401.509 0.683295
402.161 0.618721
402.813 0.566609
403.466 0.637261
404.119 0.574749
404.772 0.682054
405.425 0.525735
406.078 0.605726
406.731 0.476693
407.384 0.534956
408.038 0.532751
408.691 0.491766
409.345 0.433211
409.998 0.490374
410.652 0.450379
411.306 0.450348
411.961 0.412882
412.615 0.391888
413.269 0.457620
413.923 0.453047
414.578 0.369518
415.233 0.343144
415.887 0.424270
416.542 0.334109
417.197 0.338356
417.852 0.342607
418.508 0.362363
419.163 0.324434
419.818 0.331187
420.474 0.336571
421.13 0.320189
421.786 0.303890
422.442 0.295913
423.098 0.299283
423.754 0.295168
424.41 0.305572
425.066 0.302514
425.723 0.278968
426.379 0.307337
427.036 0.279383
427.693 0.310259
428.35 0.292162
429.007 0.256597
429.664 0.260468
430.321 0.291917
430.979 0.304277
431.636 0.265597
432.294 0.276747
432.952 0.288872
433.609 0.306787
434.267 0.312489
434.925 0.323610
435.584 0.244450
436.242 0.226115
436.9 0.253349
437.559 0.280909
438.217 0.271584
438.876 0.274751
439.535 0.281864
440.194 0.287492
440.853 0.300156
441.512 0.281481
442.171 0.283104
442.831 0.260406
443.49 0.313297
444.15 0.320612
444.81 0.293832
445.469 0.331684
446.129 0.305529
446.789 0.325816
447.45 0.321666
448.11 0.304327
448.77 0.342023
449.431 0.330754
450.091 0.338706
450.752 0.356310
451.413 0.403299
452.074 0.353219
452.735 0.320607
453.396 0.331665
454.057 0.409145
454.719 0.413162
455.38 0.389689
456.042 0.445646
456.704 0.438973
457.365 0.407271
458.027 0.438646
458.689 0.425639
459.352 0.431034
460.014 0.444907
460.676 0.493799
461.339 0.480916
462.001 0.519855
462.664 0.501915
463.327 0.510000
463.99 0.518512
464.653 0.545568
465.316 0.560369
465.979 0.573808
466.642 0.611939
467.306 0.565845
467.97 0.602096
468.633 0.565477
469.297 0.578229
469.961 0.690417
470.625 0.647377
471.289 0.616403
471.953 0.668031
472.618 0.712206
473.282 0.718410
473.947 0.778396
474.611 0.811079
475.276 0.705863
475.941 0.826925
476.606 0.701627
477.271 0.853152
477.936 0.794589
478.602 0.818078
479.267 0.765429
479.933 0.854444
480.598 0.966370
481.264 0.886846
481.93 0.867320
482.596 0.881285
483.262 0.838419
483.928 0.980905
484.594 0.909192
485.261 0.976384
485.927 1.026585
486.594 1.010980
487.26 1.001586
487.927 1.044225
488.594 1.006128
489.261 1.140583
489.928 1.022267
490.596 1.065461
491.263 0.969511
491.93 1.185199
492.598 1.291087
493.266 0.974552
493.933 1.235472
494.601 1.171416
495.269 1.177686
495.937 1.205475
496.606 1.035829
497.274 1.203053
497.942 1.094448
498.611 1.041140
499.279 1.219614
499.948 1.449253
500.617 1.102086
501.286 1.135160
501.955 1.096443
502.624 1.374966
503.293 1.063067
503.963 1.328341
504.632 1.044321
505.302 1.198118
505.972 1.367948
506.641 1.413838
507.311 1.064125
507.981 1.102668
508.651 1.117831
509.322 1.141550
509.992 1.190784
510.662 1.219255
511.333 1.109802
512.004 1.230975
512.674 1.037784
513.345 1.070690
514.016 1.025710
514.687 1.035657
515.358 1.003732
516.029 1.128909
516.701 1.020640
517.372 1.162193
518.044 1.050876
518.716 1.308765
519.387 1.096503
520.059 0.995024
520.731 1.069094
521.403 0.986079
522.076 1.032674
522.748 1.242885
523.42 1.077783
524.093 1.043251
524.765 1.008410
525.438 1.101876
526.111 0.990531
526.784 0.936260
527.457 0.840947
528.13 0.867221
528.803 0.890161
529.476 0.919445
530.15 0.961940
530.823 0.800867
531.497 0.936923
532.171 0.899850
532.845 0.823560
533.519 0.832969
534.193 0.941659
534.867 0.853883
535.541 0.807775
536.216 0.695393
536.89 0.678123
537.564 0.672351
538.239 0.739836
538.914 0.665856
539.589 0.687998
540.264 0.699725
540.939 0.566922
541.614 0.549023
542.289 0.611727
542.965 0.592123
543.64 0.609009
544.316 0.541915
544.991 0.545667
545.667 0.558808
546.343 0.537174
547.019 0.475654
547.695 0.434364
548.371 0.477441
549.048 0.473308
549.724 0.427764
550.401 0.405029
551.077 0.389862
551.754 0.419199
552.431 0.375786
553.108 0.376260
553.785 0.397077
554.462 0.364700
555.139 0.331782
555.816 0.314826
556.494 0.323126
557.171 0.322512
557.849 0.318551
558.527 0.275538
559.204 0.280566
559.882 0.275037
560.56 0.258412
561.238 0.260171
561.917 0.244964
562.595 0.243912
563.273 0.221682
563.952 0.202867
564.63 0.205362
565.309 0.207528
565.988 0.166129
566.667 0.185749
567.346 0.177049
568.025 0.175701
568.704 0.143354
569.384 0.166323
570.063 0.151064
570.742 0.157417
571.422 0.141670
572.102 0.139856
572.782 0.138113
573.462 0.139872
574.141 0.132486
574.822 0.118910
575.502 0.121447
576.182 0.130230
576.863 0.105286
577.543 0.106972
578.224 0.111121
578.904 0.093465
579.585 0.082423
580.266 0.084854
580.947 0.083627
581.628 0.079544
582.309 0.077939
582.991 0.075011
583.672 0.063412
584.354 0.056875
585.035 0.077079
585.717 0.066707
586.399 0.058590
587.08 0.064707
587.762 0.051735
588.444 0.056885
589.127 0.046455
589.809 0.047495
590.491 0.054845
591.174 0.052445
591.856 0.039411
592.539 0.040047
593.222 0.044301
593.905 0.048511
594.587 0.042022
595.27 0.042266
595.954 0.037834
596.637 0.046737
597.32 0.036990
598.004 0.039897
598.687 0.051072
599.371 0.050141
600.055 0.038738
600.738 0.031121
601.422 0.023370
602.106 0.034081
602.79 0.033742
603.475 0.027660
604.159 0.040639
604.843 0.021145
605.528 0.019249
606.212 0.017643
606.897 0.007372
607.582 0.024753
608.267 0.013992
608.952 0.027995
609.637 0.013542
610.322 0.024311
611.007 0.010411
611.693 0.028174
612.378 0.024626
613.064 0.026568
613.749 0.014630
614.435 0.016490
615.121 0.003542
615.807 0.012501
616.493 0.018875
617.179 0.004187
617.865 0.019140
618.552 -0.013132
619.238 0.020733
619.924 0.018136
620.611 0.011211
621.298 0.003974
621.985 0.012965
622.671 0.024504
623.358 -0.001198
624.045 0.029544
624.733 -0.000657
625.42 -0.003199
626.107 -0.004757
626.795 0.013617
627.482 0.013836
628.17 -0.009270
628.858 -0.011132
629.545 -0.005592
630.233 0.020629
630.921 0.014113
631.609 0.017150
632.298 0.006835
632.986 -0.000330
633.674 0.017287
634.363 0.010370
635.051 0.029794
635.74 0.021077
636.429 0.016633
637.118 0.015276
637.807 0.008736
638.496 0.015506
639.185 0.012962
639.874 -0.003703
640.563 -0.010973
641.253 0.024092
641.942 0.028017
642.632 -0.025203
643.322 0.002330
644.011 -0.004728
644.701 -0.038199
645.391 0.015694
646.081 -0.020769
646.771 -0.001684
647.462 0.025126
648.152 -0.003326
648.842 0.015722
649.533 0.009143
650.224 -0.008638
650.914 -0.020010
651.605 0.020035
652.296 0.005787
652.987 0.013193
653.678 0.034269
654.369 0.026176
655.061 -0.000408
655.752 0.026693
656.443 0.001458
657.135 0.020435
657.826 0.018368
658.518 0.010268
659.21 -0.004005
659.902 -0.040738
660.594 -0.012452
661.286 0.028523
661.978 0.006031
662.67 0.038625
663.363 0.008269
664.055 0.034486
664.748 0.071346
665.44 0.027744
666.133 0.045795
666.826 0.002034
667.519 -0.016419
668.212 -0.008614
668.905 -0.015105
669.598 -0.013563
670.291 0.032530
670.985 0.030099
671.678 0.027473
672.372 0.008004
673.065 0.008464
673.759 0.015484
674.453 0.010658
675.147 0.015152
675.841 0.014745
676.535 -0.040442
677.229 0.048406
677.923 0.008038
678.617 0.007011
679.312 0.014028
680.006 0.039792
680.701 0.051569
681.396 0.020922
682.091 0.000896
682.785 -0.001838
683.48 -0.000182
684.175 0.005839
684.87 0.023006
685.566 0.012168
686.261 0.022392
686.957 0.007514
687.652 0.005034
688.348 0.014298
689.043 -0.005892
689.739 -0.019644
690.435 0.011941
691.131 0.015073
691.827 0.013835
692.523 0.065049
693.219 0.023741
693.915 0.007386
694.612 0.008807
695.308 0.015742
696.005 0.029636
696.702 0.033989
697.398 0.032686
698.095 0.018980
698.792 -0.005174
699.489 0.005802
700.186 -0.008674
700.883 -0.011580
701.581 0.010490
702.278 -0.022602
702.975 0.004084
703.673 0.049941
704.37 0.021127
705.068 -0.007836
705.766 0.010748
706.464 0.052961
707.162 -0.020733
707.86 0.036602
708.558 0.015759
709.256 0.008631
709.955 0.032783
710.653 -0.029875
711.351 -0.039749
712.05 -0.016672
712.749 0.026573
713.447 0.005931
714.146 -0.009303
714.845 0.024236
715.544 0.017441
716.243 -0.027366
716.942 0.012686
717.642 -0.002873
718.341 0.031818
719.04 0.017487
719.74 -0.015833
720.439 0.005811
721.139 -0.026602
721.839 0.027765
722.539 0.010093
723.239 0.022307
723.939 -0.007093
724.639 0.003268
725.339 0.019445
726.039 0.012445
726.74 0.040651
727.44 0.037598
728.141 -0.012706
728.841 -0.006007
729.542 -0.000200
730.243 0.016897
730.944 0.007202
731.645 0.026487
732.346 -0.008521
733.047 0.013569
733.748 0.029136
734.449 0.027440
735.151 0.022127
735.852 0.014369
736.554 0.034063
737.256 -0.008188
737.957 0.003349
738.659 -0.009184
739.361 0.005522
740.063 0.003950
740.765 -0.009292
741.467 0.027829
742.169 -0.002633
742.872 0.014994
743.574 0.003515
744.277 0.001232
744.979 0.012215
745.682 0.002860
746.385 0.004785
747.087 0.008144
747.79 0.023753
748.493 0.001408
749.196 -0.000770
749.899 0.003423
750.603 0.020154
751.306 0.017122
752.01 0.007876
752.713 0.009894
753.417 0.000638
754.12 0.019288
754.824 -0.007314
755.528 0.006571
756.232 0.024287
756.936 -0.002903
757.64 0.024713
758.344 0.004791
759.048 -0.001081
759.752 0.016220
760.457 0.006984
761.161 0.013595
761.866 0.021334
762.571 0.012765
763.275 -0.000981
763.98 0.047059
764.685 0.013764
765.39 0.024162
766.095 0.007959
766.8 -0.001231
767.505 -0.000563
768.211 0.004727
768.916 0.029715
769.621 -0.004400
770.327 -0.007944
771.033 0.005644
771.738 0.028332
772.444 0.042441
773.15 -0.002686
773.856 0.022335
774.562 0.005274
775.268 -0.000313
775.974 0.020743
776.68 0.024397
777.387 -0.009999
778.093 -0.022042
778.8 0.027703
779.506 0.002852
780.213 0.022923
780.92 0.016240
781.626 0.005080
782.333 0.011183
783.04 -0.006470
783.747 0.025740
784.455 -0.007351
785.162 0.002427
785.869 0.025868
786.577 0.038637
787.284 0.025075
787.992 0.003480
788.699 0.006054
789.407 0.004701
790.115 0.035616
790.823 0.018879
791.531 -0.038898
792.239 0.001103
792.947 -0.024713
793.655 0.020014
794.363 0.026729
795.072 0.032896
795.78 0.007982
796.489 0.063544
797.197 0.045325
797.906 -0.013017
798.615 0.028573
799.323 0.021145
800.032 0.033813
800.741 0.007797
801.45 0.064856
802.159 0.010241
802.869 -0.078436
803.578 0.102164
804.287 0.049398
804.997 -0.027871
805.706 0.001778
806.416 -0.016896
807.126 0.005006
807.835 -0.009424
808.545 0.036216
809.255 -0.024440
809.965 0.002247
810.675 0.008273
811.385 0.004055
812.096 0.036800
812.806 -0.035087
813.516 -0.051879
814.227 0.028278
814.937 0.002873
815.648 0.003475
816.359 -0.001875
817.069 -0.057112
817.78 -0.027070
818.491 0.049300
819.202 0.016134
819.913 -0.038666
820.624 0.028210
821.336 0.070794
822.047 0.009938
822.758 0.073995
823.47 0.029625
824.181 0.070118
824.893 0.060765
825.605 0.026713
826.317 0.036814
827.028 0.037395
827.74 0.059643
828.452 -0.012197
829.164 -0.071290
829.876 0.005874
830.589 0.021823
831.301 -0.063451
832.013 0.027147
832.726 0.085056
833.438 0.096028
834.151 0.014912
834.864 0.044075
835.577 -0.005546
836.289 0.059415
837.002 0.024435
837.715 -0.087949
838.428 -0.075106
839.141 0.064180
839.855 -0.006445
840.568 0.029509
841.281 -0.003288
841.995 -0.013628
842.708 -0.107429
843.422 -0.052285
844.135 0.034230
844.849 0.026942
845.563 0.005957
846.277 -0.042011
846.991 -0.144339
847.705 0.045614
848.419 -0.088352
849.133 0.082743
849.847 0.024621
850.562 -0.093440
851.276 -0.062211
851.991 0.034762
852.705 -0.042184
853.42 -0.049436
854.135 -0.031898
854.85 0.089072
855.564 0.016905
856.279 0.046766
856.994 -0.002642
857.709 0.032951
858.424 -0.089893
859.14 0.007225
859.855 -0.048475
860.57 0.004905
861.286 0.068556
862.001 0.053918
862.717 0.015614
863.433 0.018116
864.148 -0.060900
864.864 0.086623
865.58 -0.074331
866.296 0.104494
867.012 0.034200
867.728 -0.059455
868.444 0.052196
869.161 -0.072832
869.877 -0.020301
870.593 -0.128993
871.31 0.031095
872.026 0.043832
872.743 0.005355
873.46 0.107701
874.176 0.162044
874.893 0.111789
875.61 0.147009
876.327 0.003546
877.044 -0.019402
877.761 0.029913
878.478 0.077687
879.196 0.050962
879.913 0.028842
880.63 -0.027174
881.348 0.094501
882.065 0.019772
882.783 0.138280
883.501 0.143639
884.218 0.010140
884.936 -0.023782
885.654 0.029123
886.372 -0.016831
887.09 -0.017737
887.808 0.002932
888.527 0.034465
889.245 0.127694
889.963 0.130444
890.682 0.022695
891.4 0.124825
892.119 0.110162
892.837 0.065156
893.556 0.191447
894.275 -0.012502
894.994 0.127980
895.712 -0.007919
896.431 0.125585
897.15 -0.021100
897.87 -0.043094
898.589 0.075717
899.308 0.011519
900.027 -0.106080
900.747 -0.048441
901.466 -0.081114
902.186 0.050690
902.905 0.176501
903.625 0.090361
904.345 -0.014020
905.064 0.133072
905.784 -0.043859
906.504 0.019492
907.224 0.086437
907.944 -0.056647
908.664 -0.060725
909.385 0.250562
910.105 -0.129344
910.825 0.066120
911.546 0.127228
912.266 0.306510
912.987 -0.055549
913.707 -0.058062
914.428 -0.004009
915.149 0.000130
915.87 -0.002403
916.591 0.024830
917.312 0.072500
918.033 0.047540
918.754 0.050361
919.475 0.018796
920.196 -0.057992
920.918 -0.064607
921.639 0.081504
922.361 0.082319
923.082 -0.034385
923.804 0.086754
924.525 0.134812
925.247 0.026357
925.969 0.155018
926.691 0.242843
927.413 0.029180
928.135 0.115137
928.857 0.101018
929.579 0.301968
930.301 0.145362
931.023 -0.156121
931.746 0.037642
932.468 0.256948
933.191 -0.114510
933.913 -0.011646
934.636 -0.070173
935.358 0.176765
936.081 0.346207
936.804 3.422261
937.527 0.367037
938.25 0.197922
938.973 0.341607
939.696 0.144620
940.419 -0.502684
941.142 2.913814
941.865 0.435421
942.589 0.456279
943.312 0.081446
944.036 0.810530
944.759 0.657641
945.483 0.218540
946.207 0.259291
946.93 -0.535371
947.654 0.122098
948.378 -0.020179
949.102 0.409988
949.826 -0.115541
950.55 0.157105
951.274 0.269783
951.998 -0.069270
952.723 0.514993
953.447 0.236393
954.171 -1.314795
954.896 0.048106
955.62 2.896526
956.345 1.305798
957.07 0.857556
957.794 -0.189077
958.519 1.130171
959.244 0.171306
959.969 2.918555
960.694 -0.429421
961.419 -0.247155
962.144 -0.573970
962.869 0.002494
963.594 3.215373
964.32 0.075780
965.045 0.286045
965.77 -0.316860
966.496 -0.161725
967.222 -0.018085
967.947 -0.186366
968.673 -0.209708
969.399 0.057677
970.125 -0.221386
970.85 0.823627
971.576 0.172279
972.302 0.133318
973.028 0.213390
973.755 0.056642
974.481 0.001829
975.207 0.695545
975.933 -0.274701
976.66 3.082785
977.386 -0.188918
978.113 -0.293337
978.839 0.113755
979.566 2.663701
980.293 0.291762
981.019 2.752816
981.746 -0.888901
982.473 0.766056
983.2 2.990339
983.927 0.894786
984.654 2.760422
985.381 0.208394
986.109 -2.079181
986.836 0.042332
987.563 1.156636
988.291 -0.268961
989.018 0.724342
989.746 -0.672723
990.473 1.391439
991.201 -0.021338
991.928 -2.149219
992.656 -0.064159
993.384 0.630668
994.112 -0.301369
994.84 0.000000
995.568 -0.335574
996.296 0.617854
997.024 2.049218
997.752 2.768638
998.481 0.580791
999.209 -2.426511
999.937 2.318063
1000.67 0.312452
1001.39 0.996887
1002.12 2.840106
1002.85 2.913284
1003.58 0.000000
1004.31 2.719331
1005.04 0.609540
1005.77 0.392968
1006.5 -0.207862
1007.22 -0.514400
1007.95 0.162051
1008.68 0.805474
1009.41 -3.252368
1010.14 2.432969
1010.87 -0.014595
1011.6 1.591065
1012.33 -0.037071
1013.06 -2.766413
1013.79 0.256357
1014.52 0.522480
1015.25 0.322468
1015.98 -0.494234
1016.71 -0.784180
1017.44 -0.467091
1018.17 0.161687
1018.9 0.322633
1019.63 2.950851
1020.36 2.575188
1021.09 0.627213
1021.82 -1.544068
1022.55 0.037492
1023.03 2.812913