File: Auto_Polymerization/Data/UV_VIS_Spectra/MRG-061-F-2_spectra_while_stopped/spectrum_2025-06-19_11-01-43_absorbance.txt
# Wavelength	Absorbance
197.78 -0.447404
198.392 0.723104
199.004 2.918555
199.617 2.768638
200.229 2.463893
200.842 2.902003
201.455 0.414712
202.067 -0.180592
202.68 0.488913
203.294 2.745075
203.907 1.959041
204.52 3.062958
205.134 3.093772
205.748 0.071485
206.361 0.000000
206.975 2.294466
207.589 0.000000
208.204 3.152288
208.818 -0.555994
209.433 0.196985
210.047 0.087688
210.662 3.055378
211.277 2.907949
211.892 0.426928
212.507 3.209783
213.122 2.866287
213.738 2.985426
214.353 0.000000
214.969 0.185563
215.585 2.846955
216.201 -0.237182
216.817 2.833784
217.433 -0.137384
218.049 0.000000
218.666 0.425498
219.282 2.960946
219.899 3.267641
220.516 -2.990339
221.133 -0.049335
221.75 0.509613
222.368 2.913284
222.985 0.000000
223.603 -0.662229
224.22 2.935507
224.838 0.069563
225.456 2.653213
226.074 -0.060390
226.692 -2.919078
227.311 1.664776
227.929 3.252853
228.548 3.108227
229.167 0.000000
229.786 0.030515
230.405 1.963788
231.024 0.113720
231.643 -0.154237
232.262 0.535048
232.882 2.599883
233.501 0.563546
234.121 0.000000
234.741 3.097604
235.361 3.122544
235.982 0.872097
236.602 -2.919078
237.222 2.853698
237.843 1.006160
238.464 0.410121
239.084 0.000000
239.706 2.643453
240.327 1.345234
240.948 2.990339
241.569 0.673416
242.191 0.574369
242.812 -0.625275
243.434 2.913284
244.056 -2.820858
244.678 0.408484
245.3 -0.229776
245.923 3.026125
246.545 -0.380502
247.167 0.454197
247.79 1.845098
248.413 2.872739
249.036 1.185502
249.659 0.307772
250.282 3.189490
250.906 -0.800344
251.529 -0.623857
252.153 0.995123
252.776 2.397940
253.4 2.935003
254.024 0.025166
254.648 0.642273
255.273 3.097604
255.897 0.651797
256.521 2.827369
257.146 2.902003
257.771 0.000000
258.396 0.371822
259.021 0.205267
259.646 0.338044
260.271 2.621176
260.897 0.344905
261.522 3.142702
262.148 -0.205728
262.774 -0.043926
263.399 3.206826
264.026 -0.141620
264.652 3.097604
265.278 2.990339
265.904 0.897773
266.531 2.294466
267.158 -0.432432
267.784 2.550228
268.411 0.003735
269.038 2.123852
269.666 0.272825
270.293 0.000000
270.921 2.833784
271.548 2.691965
272.176 3.277609
272.804 3.021603
273.432 0.786846
274.06 2.945961
274.688 0.174529
275.316 3.055378
275.945 2.965672
276.573 0.095031
277.202 0.106261
277.831 3.118595
278.46 -0.183749
279.089 2.691965
279.718 3.272770
280.348 1.185299
280.977 -0.079181
281.607 0.000000
282.237 2.935003
282.866 0.117749
283.497 0.269424
284.127 -2.095916
284.757 0.462234
285.387 0.000000
286.018 1.103914
286.648 2.940516
287.279 -0.114466
287.91 2.621176
288.541 3.352954
289.172 0.000000
289.803 0.000000
290.435 -2.587711
291.067 1.187087
291.698 2.768638
292.33 0.505150
292.962 0.000000
293.594 0.384097
294.226 0.000000
294.858 3.074816
295.491 -3.009026
296.123 0.328650
296.756 3.220892
297.389 2.935003
298.022 0.903706
298.654 0.258458
299.288 -2.127105
299.921 0.646806
300.554 0.058414
301.188 3.104487
301.822 0.801257
302.455 -0.035295
303.089 -0.418766
303.723 2.924279
304.357 2.432969
304.992 2.784617
305.626 2.294466
306.261 -0.150518
306.895 2.575188
307.53 1.718086
308.165 -3.043362
308.8 0.161488
309.435 2.450249
310.07 -0.126710
310.706 3.168203
311.341 0.130905
311.977 3.142702
312.613 3.012837
313.249 0.850592
313.885 -0.046540
314.521 3.104828
315.157 0.571169
315.793 2.653213
316.43 3.525174
317.067 0.735091
317.703 3.336260
318.34 0.852092
318.977 0.411059
319.614 0.734474
320.252 0.362398
320.889 0.126926
321.526 0.884342
322.164 3.132580
322.802 0.237157
323.44 3.437433
324.078 3.558108
324.716 3.399154
325.354 0.399926
325.992 3.314710
326.631 1.131245
327.269 3.416973
327.908 0.815548
328.547 3.636688
329.186 3.564311
329.825 0.577205
330.464 1.208049
331.104 3.526469
331.743 3.583879
332.383 3.520876
333.022 0.624331
333.662 0.761808
334.302 0.649910
334.942 3.626956
335.582 1.395366
336.223 1.821139
336.863 0.468688
337.504 3.672098
338.144 3.781037
338.785 3.703205
339.426 3.712144
340.067 3.741388
340.708 0.505493
341.349 1.193447
341.991 0.591116
342.632 1.584948
343.274 0.757594
343.916 0.841684
344.558 0.621068
345.2 3.834484
345.842 3.870521
346.484 2.451457
347.126 1.567555
347.769 1.038749
348.411 1.690539
349.054 3.926085
349.697 0.838490
350.34 0.976448
350.983 1.285363
351.626 3.954918
352.27 3.959471
352.913 1.105166
353.557 3.994713
354.2 3.930898
354.844 1.456454
355.488 3.989138
356.132 4.015527
356.776 3.974327
357.421 0.979176
358.065 3.991935
358.709 1.003854
359.354 0.928639
359.999 3.957464
360.644 3.982497
361.289 1.101128
361.934 4.009323
362.579 4.062845
363.224 4.031206
363.87 1.782652
364.515 1.754635
365.161 1.484844
365.807 4.020403
366.453 1.270990
367.099 1.699224
367.745 1.353502
368.392 1.241512
369.038 2.191132
369.685 4.136974
370.331 1.587302
370.978 1.597445
371.625 2.201667
372.272 1.490468
372.919 1.825811
373.566 4.154637
374.214 1.002396
374.861 4.167317
375.509 1.624530
376.156 1.774206
376.804 2.787562
377.452 2.216738
378.1 1.368470
378.748 2.342314
379.397 1.377174
380.045 4.285760
380.694 1.768757
381.342 2.474861
381.991 1.304753
382.64 2.651357
383.289 1.718585
383.938 1.104701
384.587 1.114021
385.237 1.535474
385.886 1.430305
386.536 1.808491
387.186 1.058280
387.836 1.352994
388.485 1.059745
389.135 1.180994
389.786 0.975045
390.436 0.881269
391.086 0.776141
391.737 0.913316
392.387 0.705908
393.038 0.666353
393.689 0.619706
394.34 0.631106
394.991 0.535575
395.642 0.645937
396.294 0.479577
396.945 0.515008
397.597 0.449901
398.248 0.405970
398.9 0.414997
399.552 0.390609
400.204 0.331369
400.856 0.374840
401.509 0.288682
402.161 0.304592
402.813 0.271800
403.466 0.303449
404.119 0.237990
404.772 0.234917
405.425 0.248528
406.078 0.234696
406.731 0.246436
407.384 0.217394
408.038 0.211425
408.691 0.194791
409.345 0.200209
409.998 0.169759
410.652 0.189872
411.306 0.178337
411.961 0.185831
412.615 0.154589
413.269 0.127386
413.923 0.165405
414.578 0.164730
415.233 0.148254
415.887 0.192983
416.542 0.118179
417.197 0.144470
417.852 0.142764
418.508 0.154798
419.163 0.133856
419.818 0.116970
420.474 0.132592
421.13 0.149768
421.786 0.153715
422.442 0.168518
423.098 0.149080
423.754 0.139548
424.41 0.149226
425.066 0.137417
425.723 0.141867
426.379 0.130774
427.036 0.182998
427.693 0.159465
428.35 0.139299
429.007 0.120329
429.664 0.152051
430.321 0.174809
430.979 0.144998
431.636 0.127602
432.294 0.151646
432.952 0.203516
433.609 0.177972
434.267 0.172223
434.925 0.159679
435.584 0.133407
436.242 0.183464
436.9 0.179210
437.559 0.133701
438.217 0.184922
438.876 0.174340
439.535 0.165715
440.194 0.210197
440.853 0.218473
441.512 0.224221
442.171 0.234361
442.831 0.196917
443.49 0.224521
444.15 0.222982
444.81 0.225213
445.469 0.241394
446.129 0.241048
446.789 0.247166
447.45 0.313023
448.11 0.235662
448.77 0.241730
449.431 0.298282
450.091 0.302100
450.752 0.277457
451.413 0.330099
452.074 0.292761
452.735 0.258777
453.396 0.319078
454.057 0.312620
454.719 0.327749
455.38 0.344565
456.042 0.334741
456.704 0.360345
457.365 0.352467
458.027 0.368298
458.689 0.379286
459.352 0.406027
460.014 0.412366
460.676 0.396054
461.339 0.419746
462.001 0.440459
462.664 0.451197
463.327 0.467755
463.99 0.496307
464.653 0.473492
465.316 0.490392
465.979 0.499976
466.642 0.524461
467.306 0.572369
467.97 0.569610
468.633 0.567796
469.297 0.603557
469.961 0.548321
470.625 0.575890
471.289 0.582775
471.953 0.602823
472.618 0.616599
473.282 0.733011
473.947 0.687740
474.611 0.637640
475.276 0.706129
475.941 0.702186
476.606 0.794637
477.271 0.771882
477.936 0.735426
478.602 0.842708
479.267 0.732743
479.933 0.770249
480.598 0.869075
481.264 0.754356
481.93 0.853883
482.596 0.834798
483.262 0.870612
483.928 0.856650
484.594 0.994620
485.261 0.975365
485.927 0.939293
486.594 0.947832
487.26 0.999112
487.927 0.880109
488.594 0.937847
489.261 1.063132
489.928 1.068693
490.596 1.047606
491.263 1.017222
491.93 1.180642
492.598 1.005809
493.266 1.308486
493.933 1.031566
494.601 1.038022
495.269 1.016669
495.937 1.249561
496.606 0.981695
497.274 1.134346
497.942 1.286079
498.611 1.141610
499.279 1.201019
499.948 1.237210
500.617 1.222222
501.286 1.270561
501.955 1.203649
502.624 1.187620
503.293 1.166300
503.963 1.172306
504.632 1.228856
505.302 1.304791
505.972 1.107483
506.641 1.201270
507.311 1.143497
507.981 1.332718
508.651 1.249891
509.322 1.123969
509.992 1.234561
510.662 1.403859
511.333 1.223253
512.004 1.370721
512.674 1.182108
513.345 1.081117
514.016 1.153259
514.687 1.273175
515.358 1.259005
516.029 1.019645
516.701 1.064843
517.372 1.188531
518.044 1.056555
518.716 1.057184
519.387 1.036204
520.059 1.313992
520.731 1.282667
521.403 0.891029
522.076 1.047348
522.748 1.275896
523.42 0.993689
524.093 1.036312
524.765 1.048584
525.438 1.194232
526.111 0.962835
526.784 0.941189
527.457 1.016405
528.13 0.942880
528.803 0.946861
529.476 1.031316
530.15 0.852899
530.823 0.761394
531.497 0.804425
532.171 0.753932
532.845 0.976603
533.519 0.866108
534.193 0.773648
534.867 0.695419
535.541 0.795341
536.216 0.792026
536.89 0.740935
537.564 0.703746
538.239 0.691960
538.914 0.626928
539.589 0.663254
540.264 0.636377
540.939 0.615941
541.614 0.564290
542.289 0.612705
542.965 0.641171
543.64 0.571266
544.316 0.510103
544.991 0.535293
545.667 0.520652
546.343 0.513755
547.019 0.463641
547.695 0.486978
548.371 0.465702
549.048 0.390075
549.724 0.474680
550.401 0.425934
551.077 0.376928
551.754 0.383298
552.431 0.370742
553.108 0.370965
553.785 0.335198
554.462 0.353671
555.139 0.283887
555.816 0.308815
556.494 0.308458
557.171 0.288799
557.849 0.311881
558.527 0.274195
559.204 0.211095
559.882 0.223111
560.56 0.229189
561.238 0.222377
561.917 0.212823
562.595 0.245403
563.273 0.215403
563.952 0.162545
564.63 0.208730
565.309 0.197531
565.988 0.179721
566.667 0.165991
567.346 0.171241
568.025 0.165737
568.704 0.155071
569.384 0.149271
570.063 0.133260
570.742 0.126641
571.422 0.132400
572.102 0.127676
572.782 0.116272
573.462 0.126881
574.141 0.119709
574.822 0.103029
575.502 0.110294
576.182 0.099224
576.863 0.092123
577.543 0.091424
578.224 0.091234
578.904 0.078605
579.585 0.082190
580.266 0.062552
580.947 0.064635
581.628 0.072152
582.309 0.065791
582.991 0.058863
583.672 0.055025
584.354 0.050113
585.035 0.063208
585.717 0.053607
586.399 0.050674
587.08 0.042712
587.762 0.044285
588.444 0.043728
589.127 0.036588
589.809 0.033110
590.491 0.034586
591.174 0.036548
591.856 0.026085
592.539 0.034724
593.222 0.045065
593.905 0.030336
594.587 0.025115
595.27 0.034950
595.954 0.029589
596.637 0.040984
597.32 0.035944
598.004 0.028366
598.687 0.027793
599.371 0.027239
600.055 0.029885
600.738 0.019890
601.422 0.020859
602.106 0.026025
602.79 0.027763
603.475 0.023855
604.159 0.022107
604.843 0.018526
605.528 0.009606
606.212 0.001729
606.897 0.004922
607.582 0.014835
608.267 -0.000510
608.952 0.014494
609.637 0.005090
610.322 0.004992
611.007 0.017876
611.693 0.012255
612.378 -0.007594
613.064 0.016900
613.749 0.001492
614.435 0.022559
615.121 0.012035
615.807 0.011188
616.493 0.010227
617.179 0.002041
617.865 0.011804
618.552 -0.006118
619.238 0.014589
619.924 0.015575
620.611 0.004632
621.298 -0.006977
621.985 0.005547
622.671 0.009247
623.358 0.026835
624.045 0.019043
624.733 0.003420
625.42 -0.004279
626.107 -0.009518
626.795 0.011035
627.482 0.000491
628.17 0.005355
628.858 -0.012017
629.545 0.007058
630.233 0.010912
630.921 0.014635
631.609 0.014189
632.298 0.023448
632.986 0.000113
633.674 0.016504
634.363 0.018430
635.051 0.011342
635.74 0.006812
636.429 -0.016631
637.118 -0.008174
637.807 0.016493
638.496 0.005569
639.185 0.011400
639.874 -0.004355
640.563 0.009624
641.253 -0.003229
641.942 -0.003102
642.632 -0.013689
643.322 -0.010779
644.011 0.012647
644.701 0.007341
645.391 0.029047
646.081 0.011474
646.771 -0.009363
647.462 -0.006169
648.152 -0.011701
648.842 0.000743
649.533 0.033981
650.224 -0.028817
650.914 -0.015273
651.605 0.001495
652.296 -0.011224
652.987 -0.012514
653.678 0.026388
654.369 0.025701
655.061 -0.001351
655.752 0.025592
656.443 0.001458
657.135 0.016911
657.826 0.011875
658.518 0.004096
659.21 -0.010440
659.902 -0.065651
660.594 -0.012105
661.286 0.007338
661.978 -0.024863
662.67 0.022102
663.363 0.014051
664.055 -0.003503
664.748 0.003463
665.44 0.033086
666.133 0.012706
666.826 0.041767
667.519 -0.013502
668.212 0.007863
668.905 -0.015415
669.598 -0.018652
670.291 0.007046
670.985 0.026302
671.678 -0.010217
672.372 -0.003691
673.065 -0.013767
673.759 -0.026108
674.453 -0.014691
675.147 0.020893
675.841 0.036639
676.535 0.012087
677.229 0.014783
677.923 0.003382
678.617 0.018973
679.312 0.007638
680.006 0.006169
680.701 0.005960
681.396 0.027446
682.091 -0.005479
682.785 0.004033
683.48 0.013684
684.175 0.027776
684.87 0.020409
685.566 -0.007268
686.261 0.027002
686.957 -0.003506
687.652 -0.003107
688.348 0.013170
689.043 0.016622
689.739 -0.013768
690.435 -0.005592
691.131 0.019320
691.827 0.003196
692.523 0.024669
693.219 0.008306
693.915 0.015057
694.612 0.024828
695.308 0.026153
696.005 0.018029
696.702 0.003615
697.398 0.032032
698.095 0.031852
698.792 -0.026360
699.489 0.001934
700.186 -0.010277
700.883 0.007717
701.581 0.015992
702.278 -0.008282
702.975 0.005705
703.673 0.047699
704.37 0.011523
705.068 -0.019067
705.766 -0.026493
706.464 0.017406
707.162 -0.038859
707.86 0.032232
708.558 0.017338
709.256 -0.027867
709.955 -0.022895
710.653 -0.028047
711.351 -0.073281
712.05 -0.027652
712.749 -0.010764
713.447 -0.019648
714.146 -0.004764
714.845 -0.004590
715.544 0.018605
716.243 -0.034303
716.942 0.020002
717.642 -0.009530
718.341 0.020665
719.04 0.046063
719.74 0.005706
720.439 0.013088
721.139 -0.023918
721.839 0.005526
722.539 0.009847
723.239 0.025171
723.939 0.015325
724.639 0.027193
725.339 0.029518
726.039 0.011126
726.74 0.012792
727.44 0.005784
728.141 -0.020116
728.841 0.017284
729.542 -0.005578
730.243 0.005826
730.944 0.001040
731.645 0.037711
732.346 -0.001709
733.047 0.030200
733.748 0.014348
734.449 0.002843
735.151 0.001908
735.852 0.007650
736.554 0.011488
737.256 -0.004878
737.957 -0.006049
738.659 0.011294
739.361 0.017318
740.063 0.007452
740.765 0.004160
741.467 0.002399
742.169 -0.006080
742.872 -0.024079
743.574 -0.015784
744.277 0.010719
744.979 0.019312
745.682 0.008331
746.385 0.039573
747.087 0.021063
747.79 0.001637
748.493 0.019087
749.196 0.005258
749.899 0.008279
750.603 0.009110
751.306 0.025745
752.01 0.016065
752.713 0.042421
753.417 0.001196
754.12 0.017130
754.824 -0.003891
755.528 -0.003908
756.232 0.008364
756.936 0.018296
757.64 0.002415
758.344 -0.000551
759.048 0.005831
759.752 0.025133
760.457 0.007300
761.161 0.004276
761.866 0.034292
762.571 -0.008055
763.275 0.018736
763.98 0.035753
764.685 0.013474
765.39 0.007808
766.095 -0.002844
766.8 0.002869
767.505 0.018193
768.211 -0.005274
768.916 0.018265
769.621 -0.019652
770.327 -0.017781
771.033 0.014307
771.738 0.043193
772.444 0.002090
773.15 -0.007755
773.856 0.002695
774.562 0.010047
775.268 -0.017779
775.974 -0.000717
776.68 0.039247
777.387 0.004466
778.093 0.032599
778.8 0.032242
779.506 0.008737
780.213 -0.003184
780.92 -0.000257
781.626 0.000243
782.333 -0.000384
783.04 0.026199
783.747 -0.013622
784.455 -0.017034
785.162 0.018080
785.869 -0.004238
786.577 0.012046
787.284 0.037257
787.992 -0.001307
788.699 0.009411
789.407 0.015953
790.115 -0.030592
790.823 0.008720
791.531 -0.042955
792.239 -0.022260
792.947 -0.043141
793.655 0.013437
794.363 0.043977
795.072 0.026968
795.78 0.053269
796.489 0.025351
797.197 0.006045
797.906 0.009817
798.615 0.012123
799.323 0.012559
800.032 0.019632
800.741 0.007933
801.45 0.028115
802.159 0.007280
802.869 -0.040168
803.578 0.029907
804.287 0.003233
804.997 -0.006453
805.706 0.044129
806.416 0.041914
807.126 0.051919
807.835 -0.009313
808.545 0.008551
809.255 -0.015639
809.965 0.015029
810.675 -0.010499
811.385 -0.016687
812.096 -0.045671
812.806 -0.012629
813.516 -0.025687
814.227 0.052927
814.937 0.023087
815.648 -0.043072
816.359 -0.016591
817.069 -0.003193
817.78 0.024254
818.491 -0.020245
819.202 -0.000372
819.913 -0.009298
820.624 0.035674
821.336 0.035680
822.047 0.114402
822.758 -0.012959
823.47 0.036722
824.181 0.049928
824.893 0.005919
825.605 0.036906
826.317 0.010765
827.028 0.032052
827.74 0.029882
828.452 -0.028281
829.164 0.052041
829.876 0.002850
830.589 0.058784
831.301 0.120153
832.013 0.004876
832.726 -0.005344
833.438 0.085541
834.151 0.030476
834.864 0.064368
835.577 0.015541
836.289 0.109517
837.002 0.072692
837.715 -0.012799
838.428 0.020890
839.141 0.108277
839.855 0.000765
840.568 0.056504
841.281 0.076983
841.995 -0.054497
842.708 -0.132131
843.422 0.030474
844.135 0.008690
844.849 0.069676
845.563 -0.012990
846.277 -0.053476
846.991 -0.078417
847.705 -0.020321
848.419 0.048222
849.133 -0.015040
849.847 0.089441
850.562 -0.064553
851.276 -0.142642
851.991 0.031526
852.705 0.011049
853.42 0.002130
854.135 0.003216
854.85 0.033292
855.564 0.046506
856.279 0.033443
856.994 0.039319
857.709 -0.035634
858.424 0.024512
859.14 0.060250
859.855 -0.075896
860.57 0.040651
861.286 0.052971
862.001 0.007029
862.717 0.122945
863.433 -0.028344
864.148 -0.032839
864.864 0.070603
865.58 -0.036689
866.296 0.130512
867.012 0.026658
867.728 -0.009246
868.444 0.052764
869.161 -0.016529
869.877 0.029715
870.593 0.188486
871.31 0.077687
872.026 0.089731
872.743 -0.006729
873.46 0.080087
874.176 -0.049020
874.893 0.037573
875.61 0.117445
876.327 0.060691
877.044 0.051667
877.761 -0.019419
878.478 0.021966
879.196 0.015430
879.913 0.013267
880.63 0.018387
881.348 -0.015832
882.065 0.018867
882.783 0.017469
883.501 -0.047385
884.218 0.022081
884.936 -0.040142
885.654 0.052745
886.372 0.098085
887.09 0.141534
887.808 -0.014794
888.527 0.033087
889.245 0.041962
889.963 0.007117
890.682 -0.032048
891.4 0.230746
892.119 0.054705
892.837 0.124102
893.556 0.099919
894.275 0.193421
894.994 0.103486
895.712 0.008405
896.431 0.142636
897.15 -0.015305
897.87 0.032846
898.589 0.007752
899.308 -0.022794
900.027 -0.095534
900.747 -0.052832
901.466 -0.057701
902.186 0.122897
902.905 -0.040581
903.625 0.086303
904.345 0.144130
905.064 -0.057292
905.784 0.144612
906.504 -0.043323
907.224 0.029622
907.944 -0.101909
908.664 -0.136292
909.385 0.143083
910.105 -0.098089
910.825 -0.065339
911.546 0.055130
912.266 0.195045
912.987 0.005410
913.707 -0.146048
914.428 0.022877
915.149 0.142437
915.87 -0.045058
916.591 0.003314
917.312 0.129668
918.033 -0.054475
918.754 0.153628
919.475 -0.072171
920.196 -0.131565
920.918 0.076830
921.639 0.120968
922.361 0.179989
923.082 0.005339
923.804 0.387784
924.525 -0.014737
925.247 -0.026550
925.969 0.336713
926.691 0.323117
927.413 3.442480
928.135 0.223597
928.857 0.003319
929.579 0.036416
930.301 0.293433
931.023 0.026525
931.746 0.477768
932.468 0.468840
933.191 0.034484
933.913 -0.081037
934.636 0.006854
935.358 0.036663
936.081 0.058632
936.804 0.083407
937.527 -0.029384
938.25 0.009939
938.973 0.419052
939.696 -0.022600
940.419 -0.175451
941.142 -0.251727
941.865 1.031535
942.589 -0.064374
943.312 1.066035
944.036 0.047270
944.759 0.265509
945.483 0.065405
946.207 0.076523
946.93 -0.183751
947.654 2.323105
948.378 0.081689
949.102 0.115723
949.826 0.726431
950.55 0.712357
951.274 -0.053631
951.998 0.112119
952.723 0.283044
953.447 -0.069555
954.171 -1.341418
954.896 -0.211178
955.62 -0.163037
956.345 0.273211
957.07 0.305895
957.794 -0.021652
958.519 3.125806
959.244 -0.061547
959.969 2.918555
960.694 1.471920
961.419 -0.512329
962.144 -0.492520
962.869 1.272173
963.594 3.215373
964.32 1.698660
965.045 -0.353329
965.77 -0.045405
966.496 -0.640143
967.222 0.495328
967.947 0.272028
968.673 3.067443
969.399 -0.281299
970.125 0.280722
970.85 -0.208961
971.576 2.598791
972.302 0.199899
973.028 0.532884
973.755 0.426319
974.481 2.853698
975.207 3.215373
975.933 0.265987
976.66 0.408843
977.386 2.745075
978.113 1.086505
978.839 0.123682
979.566 -0.482737
980.293 1.318404
981.019 -0.573110
981.746 1.845098
982.473 0.053003
983.2 0.452520
983.927 0.352602
984.654 2.760422
985.381 3.229170
986.109 -3.152900
986.836 3.142702
987.563 -0.184092
988.291 2.760422
989.018 0.462065
989.746 2.123852
990.473 -0.147637
991.201 -0.322368
991.928 0.000000
992.656 0.508455
993.384 3.021603
994.112 2.806180
994.84 0.000000
995.568 -0.066542
996.296 -0.069157
997.024 -0.603994
997.752 2.768638
998.481 -0.275120
999.209 0.000000
999.937 2.318063
1000.67 -0.197221
1001.39 2.745075
1002.12 2.840106
1002.85 0.092426
1003.58 -2.294466
1004.31 -0.348112
1005.04 0.198928
1005.77 2.783904
1006.5 -0.319986
1007.22 0.808114
1007.95 0.453281
1008.68 2.691965
1009.41 -2.860338
1010.14 2.432969
1010.87 0.174905
1011.6 -1.215115
1012.33 -0.431443
1013.06 -2.961421
1013.79 0.056688
1014.52 3.161967
1015.25 2.940516
1015.98 -0.260714
1016.71 2.190332
1017.44 0.603251
1018.17 0.621064
1018.9 3.021603
1019.63 2.950851
1020.36 2.575188
1021.09 3.287130
1021.82 0.000000
1022.55 2.902003
1023.03 2.812913