File: Auto_Polymerization/Data/UV_VIS_Spectra/MRG-061-F-2_spectra_while_stopped/spectrum_2025-06-19_12-45-20_absorbance.txt
# Wavelength	Absorbance
197.78 2.878522
198.392 2.682145
199.004 2.918555
199.617 2.768638
200.229 2.463893
200.842 2.902003
201.455 1.044801
202.067 0.825924
202.68 2.827369
203.294 0.810576
203.907 -1.106538
204.52 3.062958
205.134 1.159273
205.748 0.449149
206.361 -2.988113
206.975 -0.875795
207.589 -2.648360
208.204 3.152288
208.818 -0.191985
209.433 2.907949
210.047 2.798651
210.662 0.450073
211.277 0.259589
211.892 2.480007
212.507 3.209783
213.122 0.633291
213.738 0.657047
214.353 0.000000
214.969 2.896526
215.585 2.846955
216.201 2.806180
216.817 2.833784
217.433 2.536558
218.049 -3.117603
218.666 0.097829
219.282 0.784855
219.899 0.298691
220.516 -2.706718
221.133 2.600973
221.75 3.183555
222.368 2.913284
222.985 -2.029384
223.603 0.159701
224.22 2.935507
224.838 1.246968
225.456 2.352183
226.074 0.456366
226.692 0.000000
227.311 0.280705
227.929 3.252853
228.548 0.367075
229.167 -2.757396
229.786 2.791691
230.405 -0.477121
231.024 2.890421
231.643 0.091136
232.262 3.280123
232.882 2.599883
233.501 0.177727
234.121 0.000000
234.741 0.294831
235.361 3.122544
235.982 -0.575694
236.602 0.000000
237.222 -0.203968
237.843 1.851258
238.464 3.063333
239.084 0.000000
239.706 0.139662
240.327 -0.042664
240.948 0.458860
241.569 2.632457
242.191 3.206826
242.812 -0.477869
243.434 2.913284
244.056 -2.881955
244.678 0.155056
245.3 2.357935
245.923 0.377765
246.545 -0.582438
247.167 1.853645
247.79 -0.896054
248.413 0.084570
249.036 3.030600
249.659 0.786027
250.282 3.189490
250.906 -0.447363
251.529 2.008600
252.153 0.020076
252.776 2.397940
253.4 0.041241
254.024 2.872739
254.648 -0.124384
255.273 3.097604
255.897 -0.175821
256.521 2.827369
257.146 1.258550
257.771 0.000000
258.396 0.280012
259.021 1.382672
259.646 -0.013272
260.271 2.621176
260.897 0.228367
261.522 3.142702
262.148 0.248743
262.774 0.150015
263.399 0.173804
264.026 -0.628286
264.652 3.097604
265.278 2.990339
265.904 2.950851
266.531 -0.112074
267.158 0.143644
267.784 -0.418721
268.411 0.218829
269.038 -0.481453
269.666 2.965672
270.293 -2.668386
270.921 2.833784
271.548 -0.213291
272.176 0.871069
272.804 3.021603
273.432 0.033947
274.06 -0.192026
274.688 3.183555
275.316 3.055378
275.945 2.965672
276.573 0.133388
277.202 3.047275
277.831 3.118595
278.46 2.935507
279.089 1.330237
279.718 -0.006441
280.348 -0.336492
280.977 -0.193423
281.607 0.000000
282.237 -0.089483
282.866 2.791691
283.497 0.661384
284.127 -1.561442
284.757 3.025715
285.387 -2.440909
286.018 0.569970
286.648 2.940516
287.279 2.846955
287.91 2.621176
288.541 0.384004
289.172 -2.503791
289.803 0.000000
290.435 0.000000
291.067 0.329224
291.698 2.768638
292.33 3.042969
292.962 0.000000
293.594 0.067387
294.226 0.000000
294.858 0.791515
295.491 -2.503791
296.123 0.716249
296.756 3.220892
297.389 2.935003
298.022 3.149219
298.654 3.177536
299.288 -2.406540
299.921 3.234517
300.554 0.739994
301.188 0.928396
301.822 0.268524
302.455 3.097604
303.089 -0.547321
303.723 -0.149072
304.357 -0.070821
304.992 2.784617
305.626 1.993436
306.261 3.051153
306.895 -0.165964
307.53 -0.062899
308.165 0.000000
308.8 3.034227
309.435 2.450249
310.07 0.759829
310.706 3.168203
311.341 1.361947
311.977 3.142702
312.613 -0.307724
313.249 3.332034
313.885 0.192598
314.521 3.104828
315.157 0.589805
315.793 0.121734
316.43 3.525174
317.067 3.463445
317.703 0.303238
318.34 0.921513
318.977 3.437592
319.614 2.943989
320.252 0.446080
320.889 2.465383
321.526 0.443448
322.164 0.527275
322.802 0.196470
323.44 3.437433
324.078 0.340888
324.716 3.399154
325.354 3.583765
325.992 0.709405
326.631 3.581495
327.269 3.416973
327.908 0.520282
328.547 3.636688
329.186 3.564311
329.825 1.841701
330.464 1.076234
331.104 3.526469
331.743 0.605242
332.383 3.520876
333.022 3.595606
333.662 3.609381
334.302 0.781479
334.942 3.626956
335.582 3.640879
336.223 3.666237
336.863 0.737533
337.504 1.388797
338.144 3.781037
338.785 3.703205
339.426 1.479148
340.067 1.334848
340.708 3.745543
341.349 1.290357
341.991 3.831166
342.632 3.830460
343.274 1.648945
343.916 3.793022
344.558 0.735459
345.2 3.834484
345.842 0.752918
346.484 3.898615
347.126 1.164860
347.769 3.886321
348.411 0.777409
349.054 3.926085
349.697 1.180483
350.34 3.937869
350.983 3.917820
351.626 1.213766
352.27 0.909865
352.913 1.139461
353.557 1.521957
354.2 3.930898
354.844 1.136941
355.488 1.216084
356.132 1.046578
356.776 3.974327
357.421 0.990816
358.065 3.991935
358.709 4.012879
359.354 3.988202
359.999 0.819477
360.644 3.982497
361.289 4.042142
361.934 1.151991
362.579 1.084208
363.224 1.324489
363.87 0.946817
364.515 4.049102
365.161 4.048325
365.807 4.020403
366.453 4.118562
367.099 4.077622
367.745 4.114678
368.392 1.060457
369.038 4.150173
369.685 4.136974
370.331 2.284934
370.978 2.295076
371.625 0.810461
372.272 1.359977
372.919 1.087256
373.566 2.220139
374.214 1.519577
374.861 1.071103
375.509 1.487965
376.156 4.224455
376.804 1.265770
377.452 4.269816
378.1 4.253265
378.748 4.301356
379.397 4.318189
380.045 1.728253
380.694 4.279302
381.342 4.319959
381.991 4.304318
382.64 2.058252
383.289 1.878286
383.938 4.339471
384.587 4.348791
385.237 4.356332
385.886 1.303079
386.536 4.371972
387.186 1.179710
387.836 4.396356
388.485 1.508998
389.135 1.772684
389.786 1.361762
390.436 4.410828
391.086 2.499367
391.737 1.474557
392.387 1.191187
393.038 1.324270
393.689 1.603829
394.34 1.339493
394.991 1.500062
395.642 1.089120
396.294 1.112893
396.945 1.117850
397.597 0.901644
398.248 1.069055
398.9 1.023605
399.552 1.091306
400.204 0.986235
400.856 0.844264
401.509 0.803641
402.161 0.779388
402.813 0.844819
403.466 0.822932
404.119 0.715506
404.772 0.727417
405.425 0.695458
406.078 0.727468
406.731 0.665657
407.384 0.712438
408.038 0.634341
408.691 0.681735
409.345 0.625979
409.998 0.565728
410.652 0.587548
411.306 0.571823
411.961 0.571558
412.615 0.542206
413.269 0.543211
413.923 0.551976
414.578 0.569341
415.233 0.606203
415.887 0.510296
416.542 0.507919
417.197 0.510092
417.852 0.417217
418.508 0.508106
419.163 0.552007
419.818 0.373221
420.474 0.458717
421.13 0.455676
421.786 0.427998
422.442 0.431679
423.098 0.369477
423.754 0.363240
424.41 0.416504
425.066 0.354353
425.723 0.369483
426.379 0.358142
427.036 0.392720
427.693 0.420297
428.35 0.354124
429.007 0.383575
429.664 0.395724
430.321 0.343816
430.979 0.361310
431.636 0.297603
432.294 0.300931
432.952 0.336282
433.609 0.373236
434.267 0.351164
434.925 0.344185
435.584 0.344988
436.242 0.338712
436.9 0.287804
437.559 0.319299
438.217 0.364385
438.876 0.342902
439.535 0.328129
440.194 0.342024
440.853 0.363336
441.512 0.387299
442.171 0.358489
442.831 0.338083
443.49 0.372171
444.15 0.338873
444.81 0.317932
445.469 0.366787
446.129 0.396353
446.789 0.365043
447.45 0.394506
448.11 0.360268
448.77 0.419866
449.431 0.379070
450.091 0.395964
450.752 0.423697
451.413 0.415848
452.074 0.429257
452.735 0.378774
453.396 0.436256
454.057 0.440945
454.719 0.449346
455.38 0.430955
456.042 0.408988
456.704 0.414628
457.365 0.513258
458.027 0.510106
458.689 0.492672
459.352 0.447954
460.014 0.518973
460.676 0.478525
461.339 0.487197
462.001 0.475036
462.664 0.511159
463.327 0.599424
463.99 0.577310
464.653 0.576014
465.316 0.614349
465.979 0.552495
466.642 0.600871
467.306 0.618761
467.97 0.642746
468.633 0.681932
469.297 0.678005
469.961 0.661605
470.625 0.637114
471.289 0.783494
471.953 0.729672
472.618 0.700026
473.282 0.735278
473.947 0.724914
474.611 0.746431
475.276 0.750689
475.941 0.767191
476.606 0.771417
477.271 0.839636
477.936 0.924260
478.602 0.832554
479.267 0.898297
479.933 0.882692
480.598 0.901779
481.264 0.893022
481.93 0.898354
482.596 0.863100
483.262 0.930097
483.928 0.935059
484.594 1.041235
485.261 1.071429
485.927 1.229838
486.594 0.914529
487.26 0.997428
487.927 1.046757
488.594 1.005308
489.261 1.038413
489.928 1.045538
490.596 1.224030
491.263 1.112191
491.93 1.103438
492.598 1.225569
493.266 1.261397
493.933 1.191296
494.601 1.188277
495.269 1.297714
495.937 1.100967
496.606 1.141006
497.274 1.252887
497.942 1.134273
498.611 1.075942
499.279 1.185547
499.948 1.518713
500.617 1.308681
501.286 1.089080
501.955 1.159936
502.624 1.225452
503.293 1.205458
503.963 1.134067
504.632 1.298970
505.302 1.183369
505.972 1.430725
506.641 1.235925
507.311 1.141335
507.981 1.164220
508.651 1.209245
509.322 1.167911
509.992 1.308634
510.662 1.178341
511.333 1.318457
512.004 1.189913
512.674 1.588260
513.345 1.609692
514.016 1.457793
514.687 1.154242
515.358 1.152290
516.029 1.419949
516.701 1.156285
517.372 0.986829
518.044 1.106702
518.716 1.024831
519.387 1.166252
520.059 1.390565
520.731 1.112566
521.403 1.067467
522.076 1.295851
522.748 1.047943
523.42 1.041668
524.093 1.139007
524.765 0.942496
525.438 1.165925
526.111 0.941015
526.784 1.039543
527.457 0.889602
528.13 0.986475
528.803 0.943280
529.476 0.941288
530.15 0.901792
530.823 0.945688
531.497 0.847675
532.171 0.902790
532.845 0.866671
533.519 0.888616
534.193 0.832894
534.867 0.708694
535.541 0.762599
536.216 0.867716
536.89 0.742467
537.564 0.849366
538.239 0.779500
538.914 0.750549
539.589 0.726296
540.264 0.704351
540.939 0.632439
541.614 0.629757
542.289 0.627605
542.965 0.633816
543.64 0.620944
544.316 0.622456
544.991 0.569161
545.667 0.573823
546.343 0.542743
547.019 0.520375
547.695 0.528894
548.371 0.493848
549.048 0.497114
549.724 0.446039
550.401 0.468385
551.077 0.430204
551.754 0.475397
552.431 0.413907
553.108 0.400031
553.785 0.398922
554.462 0.354908
555.139 0.338766
555.816 0.360702
556.494 0.324618
557.171 0.343207
557.849 0.298310
558.527 0.286719
559.204 0.302974
559.882 0.304290
560.56 0.286084
561.238 0.279453
561.917 0.229923
562.595 0.255430
563.273 0.260083
563.952 0.226618
564.63 0.240528
565.309 0.207080
565.988 0.207863
566.667 0.203736
567.346 0.227312
568.025 0.181556
568.704 0.212818
569.384 0.205300
570.063 0.200326
570.742 0.162691
571.422 0.181471
572.102 0.173803
572.782 0.127852
573.462 0.188015
574.141 0.155475
574.822 0.142264
575.502 0.144216
576.182 0.136648
576.863 0.146122
577.543 0.130079
578.224 0.109648
578.904 0.090979
579.585 0.116853
580.266 0.092170
580.947 0.110737
581.628 0.136104
582.309 0.068932
582.991 0.045433
583.672 0.051817
584.354 0.082382
585.035 0.107737
585.717 0.072684
586.399 0.044319
587.08 0.084553
587.762 0.052834
588.444 0.065618
589.127 0.031811
589.809 0.054589
590.491 0.036382
591.174 0.031364
591.856 0.050803
592.539 0.107023
593.222 0.071572
593.905 0.038197
594.587 0.050194
595.27 0.063590
595.954 0.022341
596.637 0.028756
597.32 0.064225
598.004 0.030232
598.687 0.093372
599.371 0.045145
600.055 0.064703
600.738 0.024853
601.422 0.030939
602.106 0.030473
602.79 0.047372
603.475 0.058183
604.159 0.024609
604.843 0.021064
605.528 0.041230
606.212 0.014831
606.897 0.013172
607.582 0.030037
608.267 -0.000352
608.952 0.021373
609.637 0.019058
610.322 0.036908
611.007 0.017333
611.693 0.023673
612.378 0.008591
613.064 0.024976
613.749 0.029073
614.435 0.022339
615.121 0.008385
615.807 0.020700
616.493 0.000657
617.179 0.014625
617.865 0.021941
618.552 -0.020775
619.238 0.015321
619.924 0.039625
620.611 -0.000505
621.298 -0.018886
621.985 0.042668
622.671 0.039938
623.358 0.019228
624.045 0.013753
624.733 0.016937
625.42 -0.017755
626.107 -0.004102
626.795 -0.004735
627.482 0.018252
628.17 -0.011096
628.858 -0.007458
629.545 0.021226
630.233 0.016310
630.921 0.000196
631.609 0.006142
632.298 0.024513
632.986 -0.010179
633.674 0.031379
634.363 0.002717
635.051 0.043697
635.74 0.018148
636.429 0.049381
637.118 0.027969
637.807 0.018686
638.496 0.043730
639.185 -0.028490
639.874 -0.003917
640.563 0.001512
641.253 -0.001715
641.942 -0.002272
642.632 0.000224
643.322 0.017934
644.011 0.022624
644.701 -0.008344
645.391 0.020901
646.081 -0.024614
646.771 -0.016635
647.462 0.041847
648.152 0.017145
648.842 0.018732
649.533 0.015256
650.224 0.015651
650.914 0.023806
651.605 0.022083
652.296 0.011277
652.987 -0.016180
653.678 0.011740
654.369 0.059570
655.061 0.247269
655.752 0.290267
656.443 0.001458
657.135 -0.041399
657.826 -0.032160
658.518 -0.023316
659.21 -0.049889
659.902 -0.273156
660.594 -0.099806
661.286 0.009184
661.978 0.033385
662.67 0.030354
663.363 0.026086
664.055 0.027000
664.748 0.020402
665.44 0.024885
666.133 -0.000196
666.826 0.006457
667.519 0.011862
668.212 0.020672
668.905 0.036366
669.598 -0.029271
670.291 0.051058
670.985 0.020710
671.678 0.088008
672.372 0.051376
673.065 -0.013252
673.759 -0.005172
674.453 0.027308
675.147 0.001122
675.841 0.051555
676.535 -0.006592
677.229 0.010795
677.923 0.055414
678.617 0.061551
679.312 0.034966
680.006 0.026829
680.701 0.017039
681.396 0.018564
682.091 0.011078
682.785 -0.011949
683.48 0.034237
684.175 0.044827
684.87 0.026196
685.566 0.034889
686.261 0.013200
686.957 -0.000532
687.652 0.015568
688.348 -0.003040
689.043 0.009061
689.739 -0.001429
690.435 -0.004295
691.131 0.035176
691.827 -0.000429
692.523 0.046442
693.219 0.025468
693.915 0.003170
694.612 -0.001101
695.308 0.040242
696.005 0.029386
696.702 0.077078
697.398 0.023750
698.095 0.029407
698.792 -0.019748
699.489 0.003740
700.186 0.012933
700.883 0.012183
701.581 -0.005029
702.278 0.007658
702.975 0.002325
703.673 0.005580
704.37 0.045939
705.068 -0.066093
705.766 0.013961
706.464 0.093649
707.162 0.009025
707.86 0.016523
708.558 -0.000299
709.256 -0.033242
709.955 0.007348
710.653 -0.007896
711.351 -0.015171
712.05 0.004828
712.749 0.026324
713.447 0.010520
714.146 0.005354
714.845 0.000113
715.544 0.003791
716.243 -0.081041
716.942 0.001487
717.642 -0.029486
718.341 0.008768
719.04 0.032869
719.74 0.015533
720.439 -0.008477
721.139 -0.026834
721.839 0.037348
722.539 0.001503
723.239 -0.007096
723.939 0.017004
724.639 0.024862
725.339 0.062890
726.039 0.032470
726.74 -0.019935
727.44 0.007151
728.141 0.005653
728.841 -0.006771
729.542 0.030441
730.243 0.002735
730.944 0.051479
731.645 -0.000135
732.346 -0.003070
733.047 0.014655
733.748 0.048880
734.449 0.039924
735.151 0.017714
735.852 0.007041
736.554 0.017087
737.256 -0.003287
737.957 -0.026421
738.659 -0.004548
739.361 0.027284
740.063 -0.016044
740.765 -0.012909
741.467 0.003646
742.169 -0.009602
742.872 -0.002707
743.574 -0.000541
744.277 0.005037
744.979 0.046930
745.682 -0.011883
746.385 0.049815
747.087 0.011391
747.79 0.008593
748.493 0.013236
749.196 0.058034
749.899 0.027998
750.603 0.000477
751.306 0.008983
752.01 -0.003912
752.713 0.000902
753.417 0.017410
754.12 0.004260
754.824 0.008174
755.528 0.002900
756.232 0.011144
756.936 0.002415
757.64 0.016437
758.344 -0.004201
759.048 0.015353
759.752 0.004633
760.457 0.007678
761.161 0.015075
761.866 0.002710
762.571 -0.009211
763.275 0.031595
763.98 0.031547
764.685 0.020403
765.39 0.016604
766.095 -0.011511
766.8 -0.027911
767.505 -0.010642
768.211 0.014583
768.916 0.043095
769.621 -0.016450
770.327 -0.012202
771.033 0.008559
771.738 0.019810
772.444 0.031889
773.15 -0.037367
773.856 0.004093
774.562 -0.026532
775.268 -0.002435
775.974 -0.021907
776.68 0.037777
777.387 0.020495
778.093 -0.000389
778.8 0.037438
779.506 0.030343
780.213 0.012580
780.92 0.036317
781.626 0.019898
782.333 0.024295
783.04 -0.011276
783.747 0.025517
784.455 0.000322
785.162 0.040520
785.869 -0.014869
786.577 0.036646
787.284 0.029140
787.992 0.017553
788.699 0.044727
789.407 -0.016452
790.115 -0.002254
790.823 -0.002362
791.531 0.067263
792.239 -0.021881
792.947 -0.046735
793.655 0.029350
794.363 0.059926
795.072 0.034096
795.78 -0.021413
796.489 0.001082
797.197 0.024000
797.906 0.058764
798.615 0.009644
799.323 0.012559
800.032 0.028992
800.741 0.014257
801.45 0.009221
802.159 0.021990
802.869 -0.010283
803.578 0.048749
804.287 -0.022121
804.997 -0.029246
805.706 -0.018677
806.416 0.047407
807.126 0.015567
807.835 0.009944
808.545 0.018713
809.255 0.036518
809.965 0.008435
810.675 -0.021514
811.385 0.045517
812.096 -0.035267
812.806 0.016877
813.516 0.018229
814.227 0.060078
814.937 -0.029548
815.648 -0.058523
816.359 -0.000313
817.069 0.015280
817.78 0.012191
818.491 -0.060356
819.202 0.012009
819.913 0.049811
820.624 0.060277
821.336 0.043132
822.047 0.027426
822.758 0.036150
823.47 -0.023959
824.181 0.024935
824.893 0.044305
825.605 0.053188
826.317 0.000067
827.028 0.073236
827.74 0.012118
828.452 0.062732
829.164 0.005841
829.876 -0.063489
830.589 -0.028375
831.301 0.008360
832.013 0.064872
832.726 0.026162
833.438 0.024482
834.151 0.056419
834.864 0.046269
835.577 -0.034144
836.289 0.083085
837.002 0.042130
837.715 -0.078844
838.428 0.107613
839.141 0.006002
839.855 -0.033434
840.568 0.058054
841.281 0.047076
841.995 -0.007748
842.708 0.037145
843.422 0.023791
844.135 0.152497
844.849 -0.063400
845.563 0.027056
846.277 -0.039366
846.991 0.068571
847.705 0.017272
848.419 0.161426
849.133 0.085792
849.847 0.079715
850.562 0.013207
851.276 0.084797
851.991 0.137159
852.705 0.164720
853.42 0.058845
854.135 0.057526
854.85 0.085817
855.564 -0.038134
856.279 0.005557
856.994 0.062821
857.709 -0.006704
858.424 -0.015634
859.14 -0.103889
859.855 -0.013272
860.57 -0.061674
861.286 0.078327
862.001 -0.025478
862.717 0.084032
863.433 -0.028173
864.148 0.044670
864.864 -0.059824
865.58 0.088505
866.296 -0.123649
867.012 0.048259
867.728 0.155801
868.444 0.100158
869.161 0.035274
869.877 0.074762
870.593 -0.059907
871.31 -0.009796
872.026 -0.086597
872.743 0.002669
873.46 0.080432
874.176 0.048617
874.893 0.007259
875.61 0.155433
876.327 -0.048498
877.044 0.069442
877.761 0.040489
878.478 0.011531
879.196 0.058611
879.913 -0.019064
880.63 -0.038750
881.348 -0.031107
882.065 -0.035866
882.783 0.144372
883.501 0.109944
884.218 0.024038
884.936 0.131716
885.654 -0.045065
886.372 0.042577
887.09 0.026696
887.808 0.150489
888.527 0.039367
889.245 0.080502
889.963 -0.044255
890.682 0.046743
891.4 0.089289
892.119 0.125452
892.837 0.108714
893.556 0.162017
894.275 0.012015
894.994 0.009784
895.712 0.085065
896.431 0.124616
897.15 -0.053209
897.87 -0.032714
898.589 0.042077
899.308 0.079081
900.027 -0.165786
900.747 0.208243
901.466 -0.026938
902.186 0.098173
902.905 0.059209
903.625 0.215639
904.345 0.034971
905.064 0.143782
905.784 0.230832
906.504 0.159525
907.224 -0.020875
907.944 0.121372
908.664 0.159155
909.385 0.201585
910.105 0.267414
910.825 0.186036
911.546 0.116376
912.266 0.198272
912.987 -0.111082
913.707 -0.027046
914.428 0.095068
915.149 0.693945
915.87 -0.042224
916.591 0.023627
917.312 -0.069179
918.033 -0.001997
918.754 0.010205
919.475 0.145635
920.196 0.008995
920.918 0.349137
921.639 0.135225
922.361 0.236636
923.082 0.061897
923.804 0.149306
924.525 0.117371
925.247 0.221648
925.969 0.143119
926.691 0.106715
927.413 0.311182
928.135 0.326372
928.857 -0.064404
929.579 0.232004
930.301 -0.138634
931.023 0.074294
931.746 -0.006420
932.468 0.277871
933.191 0.068646
933.913 0.058778
934.636 -0.146387
935.358 0.154094
936.081 0.497165
936.804 0.605358
937.527 0.072886
938.25 0.404052
938.973 0.820907
939.696 -0.131033
940.419 0.550836
941.142 -0.196776
941.865 0.121014
942.589 0.052550
943.312 0.846984
944.036 0.258404
944.759 0.403528
945.483 0.090355
946.207 0.695177
946.93 -0.500195
947.654 0.118597
948.378 0.178271
949.102 3.220892
949.826 0.031477
950.55 3.250176
951.274 -0.099831
951.998 0.328565
952.723 0.082129
953.447 0.232174
954.171 -1.503537
954.896 -0.209879
955.62 0.155375
956.345 1.162905
957.07 0.418711
957.794 3.097604
958.519 0.232045
959.244 -0.060198
959.969 0.361047
960.694 2.919078
961.419 -0.216606
962.144 0.860108
962.869 -0.208039
963.594 3.215373
964.32 0.218447
965.045 1.011462
965.77 -0.442527
966.496 0.081638
967.222 2.833784
967.947 1.046825
968.673 1.705715
969.399 2.896526
970.125 -0.601193
970.85 -0.238784
971.576 2.598791
972.302 0.030804
973.028 0.247784
973.755 3.218010
974.481 2.853698
975.207 0.298919
975.933 0.677607
976.66 0.104148
977.386 -0.193445
978.113 0.245222
978.839 2.905796
979.566 2.663701
980.293 3.008600
981.019 2.752816
981.746 -1.036857
982.473 3.192567
983.2 -0.127264
983.927 2.890421
984.654 2.760422
985.381 3.229170
986.109 -2.648360
986.836 0.369648
987.563 0.766205
988.291 2.459392
989.018 3.115278
989.746 0.762124
990.473 2.935507
991.201 2.745075
991.928 -2.844477
992.656 3.161667
993.384 -0.136156
994.112 2.806180
994.84 -3.264582
995.568 2.884795
996.296 2.827369
997.024 2.049218
997.752 2.768638
998.481 2.890421
999.209 -2.668386
999.937 -0.609307
1000.67 2.907949
1001.39 -0.193445
1002.12 -0.065150
1002.85 0.355777
1003.58 -2.978637
1004.31 -0.418655
1005.04 3.129368
1005.77 -0.410611
1006.5 -0.165724
1007.22 -0.362566
1007.95 3.146128
1008.68 -0.286672
1009.41 -2.706718
1010.14 2.131939
1010.87 3.165244
1011.6 -1.150087
1012.33 2.907411
1013.06 -3.137987
1013.79 3.108227
1014.52 0.985875
1015.25 2.940516
1015.98 -0.488271
1016.71 2.190332
1017.44 2.562293
1018.17 0.361906
1018.9 3.021603
1019.63 2.950851
1020.36 2.575188
1021.09 3.287130
1021.82 -2.857332
1022.55 2.902003
1023.03 2.812913