File: Auto_Polymerization/Data/UV_VIS_Spectra/MRG-061-F-2_spectra_while_stopped/spectrum_2025-06-19_12-04-25_absorbance.txt
# Wavelength	Absorbance
197.78 2.878522
198.392 2.682145
199.004 -0.152959
199.617 2.768638
200.229 -0.512457
200.842 -0.111256
201.455 0.149378
202.067 2.760422
202.68 0.303623
203.294 0.221328
203.907 0.180890
204.52 3.062958
205.134 0.430071
205.748 2.682145
206.361 -2.902547
206.975 -0.880465
207.589 -2.318063
208.204 3.152288
208.818 2.495544
209.433 0.028853
210.047 0.198768
210.662 3.055378
211.277 -0.407182
211.892 -0.663008
212.507 3.209783
213.122 -0.058509
213.738 0.171845
214.353 0.000000
214.969 -0.233164
215.585 0.247072
216.201 -0.007401
216.817 0.675422
217.433 0.945494
218.049 -3.004321
218.666 3.186674
219.282 2.960946
219.899 0.691300
220.516 -2.701568
221.133 0.238302
221.75 3.183555
222.368 2.913284
222.985 -1.591065
223.603 -0.010995
224.22 0.777145
224.838 2.890421
225.456 2.653213
226.074 0.360616
226.692 -1.908485
227.311 0.107613
227.929 3.252853
228.548 -0.107411
229.167 -2.853698
229.786 0.090123
230.405 1.963788
231.024 0.290538
231.643 2.718502
232.262 0.616422
232.882 -0.199457
233.501 0.378256
234.121 0.000000
234.741 1.189119
235.361 0.724604
235.982 -0.265076
236.602 -2.683047
237.222 2.853698
237.843 1.851258
238.464 3.063333
239.084 -2.890980
239.706 0.325389
240.327 2.190332
240.948 0.004463
241.569 -0.454258
242.191 -0.008812
242.812 -0.075990
243.434 0.904684
244.056 -3.039017
244.678 0.203330
245.3 2.357935
245.923 -0.045389
246.545 -0.470088
247.167 0.782404
247.79 1.845098
248.413 1.281674
249.036 3.030600
249.659 3.192567
250.282 3.189490
250.906 -0.239324
251.529 -0.591283
252.153 0.364793
252.776 -0.587935
253.4 0.411257
254.024 0.006451
254.648 -0.176583
255.273 3.097604
255.897 1.774922
256.521 2.827369
257.146 0.542167
257.771 0.000000
258.396 3.082785
259.021 3.026125
259.646 0.242214
260.271 -0.472945
260.897 0.676512
261.522 1.052797
262.148 0.288327
262.774 -0.038549
263.399 0.193567
264.026 2.396199
264.652 0.195058
265.278 2.990339
265.904 2.950851
266.531 -0.424865
267.158 -0.518325
267.784 2.550228
268.411 3.021603
269.038 2.123852
269.666 0.166331
270.293 -2.866287
270.921 -0.309230
271.548 -0.187131
272.176 0.090653
272.804 3.021603
273.432 3.165244
274.06 2.945961
274.688 0.429971
275.316 1.046778
275.945 2.965672
276.573 -0.084690
277.202 0.888912
277.831 0.123399
278.46 0.056411
279.089 2.691965
279.718 0.445400
280.348 -0.461664
280.977 2.872156
281.607 0.000000
282.237 2.935003
282.866 2.791691
283.497 -0.085343
284.127 -2.111070
284.757 1.770443
285.387 -2.465383
286.018 0.592678
286.648 2.940516
287.279 0.449015
287.91 2.621176
288.541 0.258832
289.172 -2.799341
289.803 -3.253096
290.435 0.000000
291.067 0.179986
291.698 1.177573
292.33 0.003952
292.962 -1.255273
293.594 2.994757
294.226 -1.778151
294.858 0.579272
295.491 0.000000
296.123 1.157823
296.756 0.557191
297.389 -0.239928
298.022 1.893947
298.654 0.905695
299.288 0.000000
299.921 0.111646
300.554 2.769377
301.188 3.104487
301.822 0.485643
302.455 3.097604
303.089 2.357935
303.723 2.924279
304.357 0.524484
304.992 -0.181524
305.626 2.294466
306.261 0.137339
306.895 -0.429134
307.53 0.251430
308.165 0.000000
308.8 3.034227
309.435 2.450249
310.07 -0.134117
310.706 0.327470
311.341 2.041173
311.977 3.142702
312.613 1.421773
313.249 3.332034
313.885 0.316983
314.521 3.104828
315.157 0.396718
315.793 2.653213
316.43 1.253333
317.067 3.463445
317.703 0.840715
318.34 3.097604
318.977 0.084253
319.614 0.018161
320.252 3.303412
320.889 -0.217664
321.526 0.477782
322.164 1.354429
322.802 0.280103
323.44 3.437433
324.078 0.428418
324.716 0.614537
325.354 0.882197
325.992 0.310388
326.631 1.990430
327.269 3.416973
327.908 1.075426
328.547 3.636688
329.186 0.881264
329.825 3.485153
330.464 3.658298
331.104 0.580508
331.743 0.561863
332.383 0.564708
333.022 3.595606
333.662 0.623506
334.302 2.149456
334.942 3.626956
335.582 0.674737
336.223 0.896860
336.863 0.533038
337.504 3.672098
338.144 0.701856
338.785 0.717330
339.426 0.543647
340.067 3.741388
340.708 1.347603
341.349 1.333326
341.991 3.831166
342.632 3.830460
343.274 0.702166
343.916 0.656618
344.558 1.150433
345.2 3.834484
345.842 0.632977
346.484 3.898615
347.126 1.169615
347.769 1.184754
348.411 1.217170
349.054 2.335020
349.697 1.055347
350.34 3.937869
350.983 3.917820
351.626 2.176766
352.27 0.946212
352.913 0.833148
353.557 1.069917
354.2 3.930898
354.844 1.498729
355.488 3.989138
356.132 1.582558
356.776 1.060514
357.421 1.268871
358.065 3.991935
358.709 1.795395
359.354 1.022060
359.999 0.953142
360.644 3.982497
361.289 1.288559
361.934 4.009323
362.579 1.361277
363.224 0.992189
363.87 0.989147
364.515 1.072752
365.161 1.278948
365.807 4.020403
366.453 4.118562
367.099 4.077622
367.745 1.020556
368.392 1.742015
369.038 4.150173
369.685 1.035571
370.331 4.097847
370.978 4.107990
371.625 1.011182
372.272 2.845856
372.919 1.241182
373.566 1.219130
374.214 0.952300
374.861 4.167317
375.509 1.458658
376.156 4.224455
376.804 2.017236
377.452 1.456235
378.1 1.589564
378.748 4.301356
379.397 1.451901
380.045 4.285760
380.694 2.061818
381.342 1.440863
381.991 4.304318
382.64 4.341553
383.289 2.261137
383.938 1.425657
384.587 1.825045
385.237 4.356332
385.886 1.659177
386.536 4.371972
387.186 4.362124
387.836 1.820015
388.485 1.589179
389.135 2.262682
389.786 1.557669
390.436 4.410828
391.086 1.160633
391.737 1.180669
392.387 0.989179
393.038 1.522183
393.689 1.241414
394.34 0.993881
394.991 0.901868
395.642 0.986316
396.294 0.953753
396.945 1.227169
397.597 0.832177
398.248 0.869901
398.9 1.003402
399.552 0.804249
400.204 0.920741
400.856 0.833623
401.509 0.784024
402.161 0.744608
402.813 0.755207
403.466 0.743346
404.119 0.824594
404.772 0.661090
405.425 0.599909
406.078 0.613660
406.731 0.629510
407.384 0.569790
408.038 0.638189
408.691 0.554064
409.345 0.646931
409.998 0.474519
410.652 0.551305
411.306 0.499319
411.961 0.489206
412.615 0.456225
413.269 0.510687
413.923 0.445357
414.578 0.487907
415.233 0.460361
415.887 0.445255
416.542 0.418430
417.197 0.441042
417.852 0.381999
418.508 0.404212
419.163 0.341232
419.818 0.368294
420.474 0.345966
421.13 0.368540
421.786 0.373549
422.442 0.401675
423.098 0.331420
423.754 0.415514
424.41 0.374317
425.066 0.331454
425.723 0.327048
426.379 0.315762
427.036 0.341601
427.693 0.387693
428.35 0.323761
429.007 0.313623
429.664 0.290129
430.321 0.349945
430.979 0.327134
431.636 0.325583
432.294 0.316330
432.952 0.362516
433.609 0.325301
434.267 0.348770
434.925 0.311734
435.584 0.272315
436.242 0.314670
436.9 0.271425
437.559 0.301646
438.217 0.278232
438.876 0.307759
439.535 0.305066
440.194 0.313961
440.853 0.303662
441.512 0.323405
442.171 0.327554
442.831 0.283759
443.49 0.358821
444.15 0.333988
444.81 0.316680
445.469 0.322320
446.129 0.349587
446.789 0.340365
447.45 0.345405
448.11 0.323467
448.77 0.328880
449.431 0.343802
450.091 0.343338
450.752 0.368945
451.413 0.448706
452.074 0.362452
452.735 0.373893
453.396 0.379475
454.057 0.406003
454.719 0.403607
455.38 0.436425
456.042 0.430346
456.704 0.413800
457.365 0.463929
458.027 0.436099
458.689 0.436653
459.352 0.456543
460.014 0.459336
460.676 0.485579
461.339 0.477525
462.001 0.588798
462.664 0.549401
463.327 0.569975
463.99 0.557799
464.653 0.546640
465.316 0.577217
465.979 0.609946
466.642 0.633168
467.306 0.650091
467.97 0.621235
468.633 0.607776
469.297 0.638674
469.961 0.639431
470.625 0.595161
471.289 0.643235
471.953 0.764242
472.618 0.647355
473.282 0.714247
473.947 0.705377
474.611 0.768262
475.276 0.746918
475.941 0.767565
476.606 0.765042
477.271 0.822160
477.936 0.821376
478.602 0.793656
479.267 0.833276
479.933 0.900580
480.598 0.870974
481.264 0.959086
481.93 0.909855
482.596 0.893644
483.262 0.941344
483.928 1.087928
484.594 0.888842
485.261 0.908506
485.927 1.003795
486.594 1.016510
487.26 1.006928
487.927 1.059157
488.594 1.071069
489.261 1.076234
489.928 1.061775
490.596 1.097631
491.263 1.094815
491.93 1.113138
492.598 0.978906
493.266 1.083979
493.933 1.097299
494.601 1.067941
495.269 1.069458
495.937 1.039603
496.606 1.069363
497.274 1.179043
497.942 1.052391
498.611 1.336080
499.279 1.098363
499.948 1.202289
500.617 1.217857
501.286 1.153349
501.955 1.100419
502.624 1.322494
503.293 1.208919
503.963 1.183985
504.632 1.255529
505.302 1.324582
505.972 1.034631
506.641 1.328626
507.311 1.089154
507.981 1.285683
508.651 1.142750
509.322 1.377802
509.992 1.178855
510.662 1.127341
511.333 1.335445
512.004 1.303236
512.674 0.989197
513.345 1.150499
514.016 1.069127
514.687 1.267435
515.358 1.143916
516.029 1.103524
516.701 1.339544
517.372 1.238509
518.044 1.163555
518.716 1.082938
519.387 1.195809
520.059 1.152534
520.731 1.038403
521.403 1.087844
522.076 1.084036
522.748 1.074569
523.42 1.125086
524.093 0.965780
524.765 1.236061
525.438 1.006121
526.111 0.975734
526.784 1.042983
527.457 0.893876
528.13 0.933281
528.803 0.918827
529.476 0.804371
530.15 0.981641
530.823 0.793498
531.497 0.886354
532.171 0.833335
532.845 0.827980
533.519 0.829864
534.193 0.738908
534.867 0.734363
535.541 0.797268
536.216 0.741223
536.89 0.721383
537.564 0.722989
538.239 0.754559
538.914 0.637722
539.589 0.703344
540.264 0.626322
540.939 0.607135
541.614 0.609322
542.289 0.600268
542.965 0.541484
543.64 0.567443
544.316 0.599987
544.991 0.574754
545.667 0.536271
546.343 0.472534
547.019 0.484419
547.695 0.494422
548.371 0.429897
549.048 0.442665
549.724 0.446282
550.401 0.377005
551.077 0.421355
551.754 0.424276
552.431 0.394073
553.108 0.407372
553.785 0.381478
554.462 0.362526
555.139 0.343855
555.816 0.366167
556.494 0.346364
557.171 0.329450
557.849 0.293106
558.527 0.262909
559.204 0.261481
559.882 0.317602
560.56 0.274701
561.238 0.250680
561.917 0.240547
562.595 0.239618
563.273 0.227236
563.952 0.195939
564.63 0.222142
565.309 0.219945
565.988 0.204900
566.667 0.206926
567.346 0.194454
568.025 0.175831
568.704 0.169371
569.384 0.163680
570.063 0.168244
570.742 0.162166
571.422 0.144274
572.102 0.141735
572.782 0.152184
573.462 0.130350
574.141 0.127825
574.822 0.132826
575.502 0.131871
576.182 0.129779
576.863 0.117300
577.543 0.114786
578.224 0.112086
578.904 0.099208
579.585 0.097423
580.266 0.084115
580.947 0.083283
581.628 0.085812
582.309 0.081113
582.991 0.073286
583.672 0.064990
584.354 0.069578
585.035 0.078398
585.717 0.071662
586.399 0.068906
587.08 0.063617
587.762 0.053436
588.444 0.064645
589.127 0.067680
589.809 0.049962
590.491 0.052485
591.174 0.056341
591.856 0.037030
592.539 0.042129
593.222 0.051347
593.905 0.051067
594.587 0.039859
595.27 0.042099
595.954 0.050332
596.637 0.050327
597.32 0.038748
598.004 0.036607
598.687 0.045092
599.371 0.049498
600.055 0.038406
600.738 0.030787
601.422 0.031152
602.106 0.040857
602.79 0.033229
603.475 0.031321
604.159 0.037240
604.843 0.033600
605.528 0.027021
606.212 0.021337
606.897 0.022080
607.582 0.024552
608.267 0.019653
608.952 0.031606
609.637 0.021643
610.322 0.031793
611.007 0.026596
611.693 0.021424
612.378 0.027185
613.064 0.018147
613.749 0.024001
614.435 0.025227
615.121 0.017832
615.807 0.021451
616.493 0.028914
617.179 0.005735
617.865 0.013095
618.552 0.006744
619.238 0.013740
619.924 0.014153
620.611 0.001617
621.298 0.016930
621.985 0.021537
622.671 0.027012
623.358 0.010921
624.045 0.019637
624.733 0.004602
625.42 -0.008664
626.107 -0.005616
626.795 0.020038
627.482 0.014969
628.17 -0.008897
628.858 0.005222
629.545 0.009949
630.233 -0.009462
630.921 0.025712
631.609 0.019584
632.298 0.008395
632.986 0.018968
633.674 0.021805
634.363 -0.002364
635.051 0.024531
635.74 0.014697
636.429 0.013521
637.118 0.008706
637.807 0.026044
638.496 0.025021
639.185 -0.006644
639.874 -0.004231
640.563 0.015042
641.253 0.009457
641.942 0.010615
642.632 0.028346
643.322 -0.002075
644.011 -0.010196
644.701 -0.032878
645.391 0.018534
646.081 0.005888
646.771 -0.004505
647.462 0.019916
648.152 0.019993
648.842 0.004032
649.533 0.043807
650.224 0.023395
650.914 0.001719
651.605 0.005457
652.296 -0.020510
652.987 0.009847
653.678 0.008701
654.369 0.028842
655.061 0.004123
655.752 0.027359
656.443 0.001458
657.135 0.018802
657.826 0.016224
658.518 0.004467
659.21 -0.003468
659.902 -0.046507
660.594 0.009705
661.286 -0.002030
661.978 0.010925
662.67 0.025597
663.363 0.017369
664.055 0.011917
664.748 0.028706
665.44 0.046270
666.133 0.028603
666.826 0.025529
667.519 0.021147
668.212 -0.005665
668.905 0.016275
669.598 -0.013233
670.291 -0.003298
670.985 0.052923
671.678 0.016763
672.372 0.016158
673.065 0.020286
673.759 -0.029458
674.453 0.002706
675.147 0.018247
675.841 0.019941
676.535 -0.017108
677.229 -0.010337
677.923 0.051371
678.617 -0.000388
679.312 0.008617
680.006 0.012320
680.701 0.032216
681.396 0.009786
682.091 0.012353
682.785 0.018850
683.48 0.010795
684.175 -0.010624
684.87 0.019566
685.566 0.006714
686.261 0.014965
686.957 -0.017106
687.652 -0.004662
688.348 0.007211
689.043 0.023645
689.739 0.018255
690.435 -0.001728
691.131 0.014041
691.827 -0.009924
692.523 0.017275
693.219 0.004925
693.915 -0.008939
694.612 0.004290
695.308 -0.004568
696.005 0.019094
696.702 -0.005943
697.398 0.040325
698.095 0.042200
698.792 -0.017431
699.489 -0.008747
700.186 0.008119
700.883 0.014784
701.581 0.012327
702.278 -0.012253
702.975 -0.000229
703.673 0.065522
704.37 -0.025116
705.068 -0.015516
705.766 0.014164
706.464 0.025975
707.162 -0.035640
707.86 0.026263
708.558 0.008442
709.256 -0.001884
709.955 0.008065
710.653 -0.017162
711.351 -0.046950
712.05 -0.008782
712.749 -0.021031
713.447 -0.007150
714.146 -0.003312
714.845 0.008537
715.544 0.007400
716.243 -0.001632
716.942 0.015878
717.642 -0.023191
718.341 0.024649
719.04 0.011501
719.74 0.009652
720.439 0.041528
721.139 -0.019694
721.839 -0.010124
722.539 0.012294
723.239 0.004906
723.939 -0.007805
724.639 0.066503
725.339 0.020824
726.039 -0.005103
726.74 0.010458
727.44 -0.007162
728.141 0.013207
728.841 -0.002821
729.542 0.008773
730.243 0.002134
730.944 0.003420
731.645 0.018934
732.346 0.020715
733.047 0.010741
733.748 0.004639
734.449 0.017730
735.151 -0.008625
735.852 0.006812
736.554 0.026599
737.256 0.000716
737.957 -0.011637
738.659 0.031164
739.361 0.003906
740.063 -0.021003
740.765 -0.021910
741.467 0.034586
742.169 0.008022
742.872 -0.004149
743.574 -0.003294
744.277 0.026368
744.979 0.025048
745.682 0.000772
746.385 0.026763
747.087 0.006500
747.79 0.014971
748.493 0.000711
749.196 -0.012199
749.899 0.000366
750.603 0.015442
751.306 0.021690
752.01 -0.003763
752.713 0.021561
753.417 0.001324
754.12 0.005703
754.824 -0.000387
755.528 0.010003
756.232 0.021530
756.936 0.002017
757.64 0.025792
758.344 0.010825
759.048 0.005919
759.752 0.000732
760.457 0.015724
761.161 0.005976
761.866 0.055535
762.571 -0.006474
763.275 0.015046
763.98 0.028131
764.685 0.022843
765.39 0.012538
766.095 0.006420
766.8 -0.010149
767.505 0.013634
768.211 0.009992
768.916 0.021723
769.621 -0.010904
770.327 0.009900
771.033 -0.007030
771.738 0.039290
772.444 0.012733
773.15 -0.005310
773.856 0.010502
774.562 0.005209
775.268 -0.012459
775.974 0.019975
776.68 0.037604
777.387 -0.010085
778.093 0.025905
778.8 0.024922
779.506 -0.014221
780.213 0.014703
780.92 -0.009984
781.626 0.017388
782.333 0.015164
783.04 0.000286
783.747 0.003801
784.455 0.027648
785.162 0.007279
785.869 0.000867
786.577 0.036481
787.284 0.029663
787.992 0.000965
788.699 -0.026166
789.407 -0.003856
790.115 -0.003416
790.823 -0.000403
791.531 0.001519
792.239 -0.015534
792.947 -0.010273
793.655 0.010525
794.363 0.022553
795.072 0.030247
795.78 0.001434
796.489 0.025166
797.197 0.001253
797.906 0.008099
798.615 -0.001207
799.323 0.071185
800.032 0.026061
800.741 0.004354
801.45 0.021337
802.159 0.015877
802.869 -0.012300
803.578 0.030662
804.287 0.093311
804.997 -0.031080
805.706 0.044991
806.416 -0.021345
807.126 0.028890
807.835 0.015100
808.545 0.005160
809.255 0.017344
809.965 0.011954
810.675 -0.007793
811.385 -0.010365
812.096 -0.049990
812.806 -0.022703
813.516 0.002966
814.227 0.037329
814.937 0.010254
815.648 -0.040939
816.359 -0.027574
817.069 0.011668
817.78 0.033395
818.491 -0.019902
819.202 0.030307
819.913 -0.030480
820.624 0.085154
821.336 0.088176
822.047 0.002354
822.758 0.071434
823.47 0.013939
824.181 0.048667
824.893 0.062394
825.605 0.005302
826.317 0.037437
827.028 0.010258
827.74 0.025531
828.452 0.017750
829.164 -0.039975
829.876 -0.022113
830.589 0.035752
831.301 0.022616
832.013 0.019672
832.726 0.029703
833.438 0.007503
834.151 0.102220
834.864 0.057454
835.577 -0.008335
836.289 0.109017
837.002 0.092633
837.715 -0.010623
838.428 -0.040105
839.141 0.202440
839.855 -0.008910
840.568 0.081404
841.281 -0.066585
841.995 -0.084469
842.708 -0.043411
843.422 -0.069807
844.135 0.110263
844.849 -0.006941
845.563 0.010241
846.277 -0.028199
846.991 -0.080958
847.705 0.084863
848.419 0.162105
849.133 0.019091
849.847 0.002124
850.562 0.088122
851.276 -0.002634
851.991 0.084143
852.705 -0.016211
853.42 -0.036462
854.135 0.028076
854.85 0.065408
855.564 0.077599
856.279 0.081585
856.994 -0.032695
857.709 -0.027178
858.424 -0.002287
859.14 -0.001799
859.855 0.021470
860.57 0.024369
861.286 0.000904
862.001 0.047578
862.717 -0.120965
863.433 -0.026518
864.148 -0.132651
864.864 0.041597
865.58 0.078498
866.296 0.039999
867.012 0.087355
867.728 0.022581
868.444 -0.011635
869.161 0.037963
869.877 -0.027728
870.593 -0.034546
871.31 0.005668
872.026 0.066625
872.743 0.059725
873.46 0.066660
874.176 0.027527
874.893 -0.090507
875.61 0.037102
876.327 -0.006938
877.044 0.050561
877.761 0.021737
878.478 -0.036682
879.196 0.054295
879.913 0.010252
880.63 0.033750
881.348 -0.019754
882.065 0.049835
882.783 0.072421
883.501 0.037150
884.218 0.031238
884.936 0.020175
885.654 0.057983
886.372 -0.007835
887.09 0.140589
887.808 -0.001968
888.527 0.146417
889.245 0.034194
889.963 -0.010547
890.682 -0.075465
891.4 -0.042226
892.119 -0.014139
892.837 0.092074
893.556 0.221402
894.275 -0.012772
894.994 0.055912
895.712 0.046804
896.431 -0.065143
897.15 0.001449
897.87 -0.105878
898.589 0.017838
899.308 -0.077003
900.027 -0.165187
900.747 0.016407
901.466 -0.028425
902.186 -0.085442
902.905 -0.031621
903.625 0.151421
904.345 0.005815
905.064 0.035215
905.784 0.009478
906.504 0.033360
907.224 0.052002
907.944 -0.010105
908.664 -0.141147
909.385 0.001746
910.105 0.051197
910.825 0.005655
911.546 0.309307
912.266 0.108851
912.987 -0.051687
913.707 -0.026255
914.428 0.045981
915.149 -0.008471
915.87 0.096037
916.591 0.004463
917.312 0.094859
918.033 0.000546
918.754 -0.011377
919.475 0.011665
920.196 0.101696
920.918 0.021850
921.639 0.195633
922.361 0.203268
923.082 -0.160579
923.804 0.047602
924.525 -0.007704
925.247 0.273490
925.969 0.002932
926.691 0.462086
927.413 0.496519
928.135 0.102544
928.857 0.016491
929.579 0.016921
930.301 -0.022924
931.023 -0.151723
931.746 1.031166
932.468 0.536191
933.191 0.032401
933.913 -0.015407
934.636 0.029300
935.358 0.047647
936.081 0.060987
936.804 0.008459
937.527 0.270430
938.25 0.499256
938.973 0.466002
939.696 0.487495
940.419 -0.130263
941.142 -0.149895
941.865 0.032991
942.589 -0.029996
943.312 0.103028
944.036 0.423460
944.759 0.690073
945.483 0.370223
946.207 -0.277716
946.93 -0.615002
947.654 0.052260
948.378 -0.470549
949.102 0.022235
949.826 0.609284
950.55 0.294008
951.274 0.387837
951.998 3.245019
952.723 2.975891
953.447 0.196803
954.171 -1.502381
954.896 -0.191554
955.62 0.887926
956.345 -0.156989
957.07 -0.277911
957.794 -0.064661
958.519 0.312225
959.244 -0.132250
959.969 0.182158
960.694 0.647236
961.419 -0.146128
962.144 -0.537030
962.869 2.719331
963.594 0.513805
964.32 3.145818
965.045 0.346078
965.77 -0.030634
966.496 -0.584272
967.222 -0.364873
967.947 -0.413494
968.673 3.067443
969.399 2.896526
970.125 -0.360319
970.85 -0.678339
971.576 -0.517153
972.302 1.684016
973.028 0.683079
973.755 0.858175
974.481 2.853698
975.207 3.215373
975.933 2.853698
976.66 -0.040086
977.386 -0.679317
978.113 -0.089586
978.839 0.470429
979.566 -0.312649
980.293 0.484854
981.019 0.176475
981.746 1.845098
982.473 0.062878
983.2 2.990339
983.927 -0.239269
984.654 0.602060
985.381 -0.053679
986.109 -2.432969
986.836 3.142702
987.563 2.700704
988.291 -0.008955
989.018 0.378881
989.746 -0.800944
990.473 0.000000
991.201 0.062028
991.928 -2.924796
992.656 0.082486
993.384 1.113118
994.112 -0.471887
994.84 -2.736397
995.568 -0.231148
996.296 -0.063610
997.024 -0.040687
997.752 2.768638
998.481 2.890421
999.209 0.000000
999.937 -0.837880
1000.67 0.357720
1001.39 -0.318634
1002.12 0.176405
1002.85 0.336943
1003.58 0.000000
1004.31 -0.159765
1005.04 0.204572
1005.77 0.064572
1006.5 0.262685
1007.22 0.335149
1007.95 1.367977
1008.68 2.691965
1009.41 -3.155943
1010.14 2.432969
1010.87 -0.102865
1011.6 -0.985277
1012.33 -0.445928
1013.06 -2.432969
1013.79 0.241939
1014.52 3.161967
1015.25 0.155899
1015.98 -0.303334
1016.71 -0.831684
1017.44 -0.340254
1018.17 0.145009
1018.9 3.021603
1019.63 -0.331997
1020.36 2.575188
1021.09 3.287130
1021.82 0.000000
1022.55 2.902003
1023.03 2.812913