File: Auto_Polymerization/Data/UV_VIS_Spectra/MRG-061-F-2_spectra_while_stopped/spectrum_2025-06-19_11-59-18.txt
# Wavelength (nm)	Intensity (a.u.)
197.7802	0.000725
198.3922	0.000028
199.0044	0.001464
199.6168	0.001506
200.2292	0.001970
200.8418	-0.000162
201.4546	0.000113
202.0674	0.000598
202.6805	0.000577
203.2936	-0.000626
203.9069	0.001063
204.5203	0.000028
205.1338	0.000218
205.7475	0.001105
206.3614	-0.000035
206.9753	0.001548
207.5894	0.000345
208.2036	-0.000099
208.8180	0.000830
209.4325	0.000598
210.0471	0.000725
210.6618	0.000556
211.2767	-0.000289
211.8918	-0.000225
212.5069	0.000450
213.1222	-0.000289
213.7376	-0.000225
214.3532	0.001041
214.9689	-0.000415
215.5847	0.000873
216.2007	0.000471
216.8168	0.000218
217.4330	0.000704
218.0494	0.000661
218.6659	0.001780
219.2825	0.000281
219.8992	-0.000732
220.5161	0.000091
221.1332	0.000936
221.7503	-0.001365
222.3676	0.000007
222.9850	-0.000415
223.6026	0.000683
224.2203	-0.000457
224.8381	0.001421
225.4561	0.000218
226.0742	-0.001133
226.6924	0.001590
227.3107	-0.000035
227.9292	-0.001091
228.5478	0.000113
229.1666	0.000556
229.7855	0.000155
230.4045	0.000767
231.0236	0.001443
231.6429	-0.000669
232.2623	0.000366
232.8818	0.001020
233.5015	0.001464
234.1213	0.000239
234.7413	0.000746
235.3613	0.000028
235.9815	-0.000584
236.6018	0.000239
237.2223	-0.000120
237.8429	0.001506
238.4636	0.000661
239.0845	0.000281
239.7055	0.000894
240.3266	-0.000901
240.9478	0.000049
241.5692	0.000429
242.1907	-0.000035
242.8124	-0.000289
243.4341	0.000556
244.0560	0.000113
244.6781	0.000535
245.3002	-0.000837
245.9225	0.000746
246.5449	0.000007
247.1675	0.000493
247.7902	-0.000774
248.4130	0.001316
249.0359	-0.000183
249.6590	0.000830
250.2822	0.000788
250.9056	0.000556
251.5290	0.001295
252.1526	0.001823
252.7763	-0.001175
253.4002	0.002013
254.0242	-0.001534
254.6483	0.000978
255.2725	-0.000204
255.8969	0.000493
256.5214	0.000851
257.1460	0.000260
257.7708	-0.000457
258.3957	0.000218
259.0207	-0.000943
259.6459	-0.001091
260.2711	0.001844
260.8965	0.000704
261.5221	0.001527
262.1477	0.002034
262.7735	0.000999
263.3995	0.000408
264.0255	0.001210
264.6517	0.000091
265.2780	0.001020
265.9044	-0.000162
266.5310	0.000640
267.1577	0.000450
267.7845	0.000239
268.4114	-0.000225
269.0385	-0.000246
269.6657	0.001295
270.2931	-0.000289
270.9205	0.000788
271.5481	0.000577
272.1758	0.000155
272.8037	-0.000310
273.4316	0.000936
274.0597	0.000683
274.6880	-0.000141
275.3163	-0.000816
275.9448	0.000809
276.5734	0.000619
277.2022	0.001358
277.8310	0.001506
278.4600	0.001210
279.0891	0.001126
279.7184	0.001548
280.3477	-0.000373
280.9772	-0.000352
281.6069	0.000725
282.2366	0.000598
282.8665	-0.002041
283.4965	-0.000837
284.1266	-0.000267
284.7569	0.000704
285.3873	0.000809
286.0178	0.000894
286.6484	-0.000563
287.2792	0.000471
287.9101	0.000366
288.5411	-0.000204
289.1723	0.000260
289.8035	0.001084
290.4349	-0.000099
291.0665	0.000535
291.6981	0.001823
292.3299	0.000260
292.9618	-0.000225
293.5938	0.000683
294.2260	-0.001049
294.8582	0.001189
295.4906	0.001738
296.1232	0.000999
296.7558	0.000028
297.3886	0.001126
298.0215	0.000471
298.6545	0.001168
299.2877	0.000324
299.9210	0.001084
300.5544	0.000704
301.1879	0.000514
301.8215	0.000260
302.4553	0.000387
303.0892	0.000387
303.7233	0.000577
304.3574	-0.000056
304.9917	-0.000014
305.6261	-0.000267
306.2606	0.000155
306.8953	-0.000141
307.5301	0.000661
308.1650	0.000725
308.8000	0.001801
309.4351	-0.000837
310.0704	0.001949
310.7058	0.000999
311.3413	0.000281
311.9770	0.000683
312.6127	0.000556
313.2486	0.000324
313.8846	0.000830
314.5208	-0.000457
315.1570	-0.000246
315.7934	-0.000964
316.4299	0.001231
317.0666	0.000619
317.7033	0.001041
318.3402	0.000978
318.9772	0.000598
319.6143	0.001886
320.2516	0.000767
320.8890	0.000155
321.5265	0.000767
322.1641	0.000746
322.8018	0.000218
323.4397	0.000873
324.0777	0.001020
324.7158	0.000345
325.3540	0.000767
325.9924	-0.001386
326.6308	-0.000521
327.2694	0.001316
327.9082	0.000619
328.5470	-0.000647
329.1860	0.000007
329.8251	0.000091
330.4643	0.001337
331.1036	0.000830
331.7431	0.000683
332.3826	0.001231
333.0223	-0.000436
333.6622	-0.000626
334.3021	-0.000183
334.9422	-0.001070
335.5823	-0.000267
336.2227	0.000450
336.8631	0.000260
337.5036	0.000936
338.1443	0.001041
338.7851	0.000324
339.4260	0.000303
340.0670	0.001443
340.7082	0.000345
341.3495	0.000429
341.9909	0.000788
342.6324	0.000514
343.2740	-0.000985
343.9158	-0.000436
344.5577	0.000281
345.1997	0.000535
345.8418	0.001886
346.4840	0.001041
347.1264	0.001421
347.7689	-0.000415
348.4115	0.001548
349.0542	0.000936
349.6971	0.000598
350.3400	0.001063
350.9831	0.000851
351.6263	0.000999
352.2696	0.000091
352.9131	-0.000035
353.5566	0.001126
354.2003	0.000683
354.8441	0.001717
355.4881	-0.000626
356.1321	0.001569
356.7763	-0.000373
357.4206	0.000070
358.0650	0.000683
358.7095	-0.000711
359.3541	-0.000141
359.9989	0.000978
360.6438	0.000070
361.2888	-0.000331
361.9339	0.000535
362.5791	0.000640
363.2245	-0.000542
363.8699	0.001464
364.5155	0.000155
365.1612	0.000894
365.8071	-0.000352
366.4530	0.000915
367.0991	-0.000732
367.7453	0.000429
368.3916	0.000113
369.0380	-0.000267
369.6845	-0.000542
370.3312	0.000978
370.9780	-0.000077
371.6249	0.000514
372.2719	0.002203
372.9190	0.001379
373.5663	-0.000225
374.2136	0.000619
374.8611	0.000619
375.5087	0.001759
376.1564	-0.001154
376.8043	0.000598
377.4522	-0.000099
378.1003	0.000957
378.7485	0.000619
379.3968	0.001168
380.0452	0.000070
380.6938	0.000408
381.3424	-0.000859
381.9912	0.000366
382.6401	-0.000816
383.2891	0.001189
383.9382	0.001506
384.5875	0.000049
385.2368	0.001527
385.8863	0.000767
386.5359	-0.000479
387.1856	0.000408
387.8355	0.001485
388.4854	0.001274
389.1355	0.001400
389.7856	0.002350
390.4359	0.002604
391.0863	0.002308
391.7369	0.001844
392.3875	0.002519
393.0383	0.001738
393.6891	0.003321
394.3401	0.002730
394.9912	0.002224
395.6425	0.002371
396.2938	0.002540
396.9453	0.002815
397.5968	0.003638
398.2485	0.004715
398.9003	0.005285
399.5522	0.003976
400.2043	0.005623
400.8564	0.005686
401.5087	0.006594
402.1610	0.006615
402.8135	0.005897
403.4661	0.005939
404.1189	0.008494
404.7717	0.008114
405.4246	0.008789
406.0777	0.009444
406.7309	0.008810
407.3842	0.008261
408.0376	0.009444
408.6911	0.010922
409.3448	0.011154
409.9985	0.010964
410.6524	0.010605
411.3064	0.011829
411.9605	0.012547
412.6147	0.012906
413.2690	0.011238
413.9234	0.013117
414.5780	0.013286
415.2326	0.013265
415.8874	0.014320
416.5423	0.015144
417.1973	0.013518
417.8524	0.014764
418.5077	0.016284
419.1630	0.016284
419.8185	0.015482
420.4741	0.017170
421.1298	0.019640
421.7856	0.019788
422.4415	0.019767
423.0975	0.018944
423.7536	0.018099
424.4099	0.020168
425.0663	0.019472
425.7228	0.019619
426.3793	0.018775
427.0361	0.018353
427.6929	0.021287
428.3498	0.020590
429.0068	0.018986
429.6640	0.022702
430.3213	0.024348
430.9787	0.024116
431.6362	0.021435
432.2938	0.017424
432.9515	0.020696
433.6093	0.021688
434.2673	0.023947
434.9253	0.022596
435.5835	0.023356
436.2418	0.020590
436.9001	0.022849
437.5586	0.021604
438.2173	0.022638
438.8760	0.023588
439.5348	0.023926
440.1938	0.021773
440.8528	0.022343
441.5120	0.030027
442.1713	0.027684
442.8307	0.025024
443.4902	0.026628
444.1498	0.026797
444.8095	0.025720
445.4694	0.025446
446.1293	0.022343
446.7894	0.023863
447.4496	0.022533
448.1098	0.025108
448.7702	0.022237
449.4307	0.025298
450.0914	0.022913
450.7521	0.022659
451.4129	0.021794
452.0739	0.020316
452.7349	0.021730
453.3961	0.019640
454.0574	0.019282
454.7188	0.019197
455.3803	0.019936
456.0419	0.017508
456.7036	0.017656
457.3654	0.016432
458.0274	0.017339
458.6894	0.018184
459.3516	0.017065
460.0138	0.019282
460.6762	0.016305
461.3387	0.016790
462.0013	0.016242
462.6640	0.013497
463.3268	0.013223
463.9897	0.015967
464.6528	0.015038
465.3159	0.015207
465.9792	0.015904
466.6425	0.014447
467.3060	0.013117
467.9696	0.013793
468.6333	0.011112
469.2970	0.010710
469.9610	0.010098
470.6250	0.007881
471.2891	0.008177
471.9533	0.009043
472.6177	0.009824
473.2821	0.008177
473.9467	0.008473
474.6113	0.008958
475.2761	0.007565
475.9410	0.009275
476.6060	0.008747
477.2711	0.007290
477.9363	0.009507
478.6016	0.007501
479.2670	0.007164
479.9325	0.007100
480.5982	0.006910
481.2639	0.007860
481.9298	0.008388
482.5957	0.007227
483.2618	0.006425
483.9280	0.006488
484.5943	0.006657
485.2606	0.008071
485.9271	0.020126
486.5937	0.015397
487.2605	0.011555
487.9273	0.006425
488.5942	0.005813
489.2612	0.005411
489.9284	0.005200
490.5956	0.004440
491.2630	0.003638
491.9304	0.003744
492.5980	0.004567
493.2657	0.004926
493.9334	0.003364
494.6013	0.004208
495.2693	0.006003
495.9374	0.002857
496.6056	0.003110
497.2739	0.003300
497.9423	0.003891
498.6109	0.004440
499.2795	0.003279
499.9482	0.004567
500.6171	0.002963
501.2860	0.001970
501.9551	0.003849
502.6242	0.004419
503.2935	0.005095
503.9628	0.004145
504.6323	0.004947
505.3019	0.003554
505.9716	0.003195
506.6414	0.003511
507.3113	0.004229
507.9813	0.004293
508.6514	0.002519
509.3216	0.003913
509.9919	0.004314
510.6623	0.002667
511.3329	0.001801
512.0035	0.002836
512.6742	0.002287
513.3451	0.002350
514.0160	0.003321
514.6871	0.003427
515.3582	0.002941
516.0295	0.002794
516.7008	0.003174
517.3723	0.003047
518.0439	0.001611
518.7155	0.003216
519.3873	0.003723
520.0592	0.002963
520.7312	0.001654
521.4033	0.004736
522.0755	0.002245
522.7478	0.004651
523.4202	0.004250
524.0927	0.005264
524.7653	0.003237
525.4380	0.003765
526.1108	0.003701
526.7837	0.003680
527.4568	0.004018
528.1299	0.003934
528.8031	0.003617
529.4765	0.007248
530.1499	0.005348
530.8234	0.005981
531.4971	0.004504
532.1708	0.005834
532.8447	0.006404
533.5186	0.007945
534.1927	0.007269
534.8668	0.009021
535.5411	0.008283
536.2155	0.008430
536.8899	0.006340
537.5645	0.009275
538.2392	0.010140
538.9139	0.009866
539.5888	0.011069
540.2638	0.010837
540.9389	0.011682
541.6140	0.013455
542.2893	0.012653
542.9647	0.014152
543.6402	0.013898
544.3158	0.014468
544.9915	0.013455
545.6673	0.016178
546.3432	0.014933
547.0192	0.015038
547.6953	0.016622
548.3715	0.018437
549.0478	0.019070
549.7242	0.018458
550.4007	0.016727
551.0773	0.017065
551.7540	0.019134
552.4308	0.022448
553.1077	0.022765
553.7847	0.025488
554.4618	0.022322
555.1390	0.022469
555.8163	0.025467
556.4937	0.025150
557.1712	0.023039
557.8488	0.026734
558.5266	0.024939
559.2044	0.024369
559.8823	0.026396
560.5603	0.029985
561.2384	0.033215
561.9166	0.035220
562.5949	0.032265
563.2733	0.033130
563.9519	0.035410
564.6305	0.038387
565.3092	0.038535
565.9880	0.039063
566.6669	0.040667
567.3459	0.051180
568.0250	0.054537
568.7043	0.063594
569.3836	0.076345
570.0630	0.097857
570.7425	0.102354
571.4221	0.123296
572.1018	0.135097
572.7816	0.115316
573.4615	0.135731
574.1415	0.152767
574.8216	0.166321
575.5018	0.168981
576.1821	0.154752
576.8626	0.174934
577.5431	0.195602
578.2237	0.233665
578.9044	0.196362
579.5851	0.192794
580.2660	0.205946
580.9470	0.200774
581.6281	0.309433
582.3093	0.296408
582.9906	0.234446
583.6720	0.192182
584.3535	0.194567
585.0351	0.216502
585.7167	0.226572
586.3985	0.197945
587.0804	0.206200
587.7624	0.221843
588.4445	0.200479
589.1266	0.174723
589.8089	0.159586
590.4913	0.149981
591.1737	0.131340
591.8563	0.131445
592.5389	0.152218
593.2217	0.200457
593.9046	0.189902
594.5875	0.168896
595.2705	0.193406
595.9537	0.172211
596.6369	0.143098
597.3203	0.149622
598.0037	0.142550
598.6872	0.153316
599.3709	0.175863
600.0546	0.175398
600.7384	0.178523
601.4223	0.179220
602.1064	0.167651
602.7905	0.171028
603.4747	0.183315
604.1590	0.168601
604.8434	0.154942
605.5279	0.162162
606.2125	0.172760
606.8972	0.156884
607.5819	0.159143
608.2668	0.149981
608.9518	0.142866
609.6369	0.133936
610.3220	0.149010
611.0073	0.135646
611.6927	0.137061
612.3781	0.130284
613.0637	0.129313
613.7493	0.125323
614.4351	0.125998
615.1209	0.126758
615.8068	0.131720
616.4929	0.114239
617.1790	0.112044
617.8652	0.112466
618.5515	0.101847
619.2379	0.087175
619.9244	0.095028
620.6110	0.096021
621.2977	0.073221
621.9845	0.079089
622.6714	0.082488
623.3584	0.090468
624.0454	0.086415
624.7326	0.090679
625.4199	0.085127
626.1072	0.077928
626.7947	0.071637
627.4822	0.072376
628.1698	0.063805
628.8576	0.058063
629.5454	0.063446
630.2333	0.060469
630.9213	0.056437
631.6094	0.055192
632.2976	0.050040
632.9859	0.046072
633.6743	0.045502
634.3628	0.042694
635.0514	0.043580
635.7400	0.041153
636.4288	0.048035
637.1177	0.045924
637.8066	0.040266
638.4957	0.043327
639.1848	0.041596
639.8740	0.037494
640.5633	0.037099
641.2528	0.035424
641.9423	0.032193
642.6319	0.028284
643.3216	0.029289
644.0113	0.030499
644.7012	0.026347
645.3912	0.027109
646.0812	0.024860
646.7714	0.025833
647.4616	0.025045
648.1520	0.026513
648.8424	0.033006
649.5329	0.035942
650.2236	0.030120
650.9143	0.029098
651.6051	0.029284
652.2960	0.029585
652.9870	0.032701
653.6780	0.033717
654.3692	0.034889
655.0605	0.066061
655.7518	0.945562
656.4433	1.000000
657.1348	0.855966
657.8264	0.531816
658.5181	0.413250
659.2099	0.326837
659.9018	0.097792
660.5938	0.030200
661.2859	0.024021
661.9781	0.021244
662.6704	0.023938
663.3627	0.022218
664.0552	0.023723
664.7477	0.023541
665.4403	0.023929
666.1330	0.023234
666.8259	0.021401
667.5188	0.022342
668.2117	0.021158
668.9048	0.020316
669.5980	0.020802
670.2913	0.021519
670.9846	0.021963
671.6781	0.030639
672.3716	0.034376
673.0652	0.032687
673.7589	0.028528
674.4527	0.026164
675.1466	0.026079
675.8406	0.026459
676.5347	0.024095
677.2288	0.025003
677.9231	0.027304
678.6174	0.030386
679.3119	0.031674
680.0064	0.035537
680.7010	0.036023
681.3957	0.036719
682.0905	0.032518
682.7854	0.031674
683.4803	0.031273
684.1754	0.034883
684.8705	0.038366
685.5658	0.044678
686.2611	0.044826
686.9565	0.041934
687.6520	0.044214
688.3476	0.040308
689.0433	0.036170
689.7390	0.037838
690.4349	0.035263
691.1308	0.039020
691.8269	0.039210
692.5230	0.038239
693.2192	0.038767
693.9155	0.038218
694.6119	0.033109
695.3083	0.035579
696.0049	0.030428
696.7016	0.036044
697.3983	0.039738
698.0951	0.037268
698.7920	0.038070
699.4890	0.036804
700.1861	0.032202
700.8833	0.032877
701.5806	0.029246
702.2779	0.031230
702.9753	0.031209
703.6729	0.029415
704.3705	0.028929
705.0682	0.025129
705.7660	0.024369
706.4638	0.029478
707.1618	0.036192
707.8599	0.039569
708.5580	0.037142
709.2562	0.033426
709.9545	0.035432
710.6529	0.035115
711.3514	0.032328
712.0500	0.028000
712.7486	0.029605
713.4474	0.030872
714.1462	0.034798
714.8451	0.034714
715.5441	0.034460
716.2432	0.030534
716.9424	0.029943
717.6416	0.028444
718.3410	0.028676
719.0404	0.030492
719.7399	0.029964
720.4395	0.027219
721.1392	0.031294
721.8390	0.028359
722.5388	0.029964
723.2388	0.027409
723.9388	0.029457
724.6389	0.026797
725.3391	0.032096
726.0394	0.033806
726.7398	0.033890
727.4403	0.031062
728.1408	0.035305
728.8414	0.033637
729.5421	0.036656
730.2429	0.038049
730.9438	0.042103
731.6448	0.043686
732.3458	0.041216
733.0470	0.043580
733.7482	0.046578
734.4495	0.051434
735.1509	0.048943
735.8524	0.048140
736.5539	0.047148
737.2556	0.049238
737.9573	0.043982
738.6591	0.039675
739.3610	0.049196
740.0630	0.045438
740.7651	0.039548
741.4672	0.035790
742.1695	0.033595
742.8718	0.032582
743.5742	0.030660
744.2767	0.029837
744.9792	0.029246
745.6819	0.029394
746.3846	0.028444
747.0874	0.031484
747.7903	0.031019
748.4933	0.029900
749.1964	0.032159
749.8995	0.035199
750.6028	0.043179
751.3061	0.038007
752.0095	0.037775
752.7130	0.035579
753.4166	0.038450
754.1202	0.044425
754.8239	0.041744
755.5278	0.041702
756.2317	0.044995
756.9356	0.050378
757.6397	0.057957
758.3438	0.057366
759.0481	0.055508
759.7524	0.060659
760.4568	0.064797
761.1613	0.059857
761.8658	0.053735
762.5705	0.047993
763.2752	0.049513
763.9800	0.048436
764.6849	0.056479
765.3898	0.057493
766.0949	0.050758
766.8000	0.041617
767.5052	0.038915
768.2105	0.044720
768.9159	0.049534
769.6214	0.048183
770.3269	0.045206
771.0325	0.046663
771.7382	0.045122
772.4440	0.042229
773.1499	0.041892
773.8558	0.039210
774.5618	0.033658
775.2679	0.031252
775.9741	0.025742
776.6804	0.025953
777.3868	0.024918
778.0932	0.024369
778.7997	0.029605
779.5063	0.031589
780.2130	0.029499
780.9197	0.031442
781.6265	0.036593
782.3335	0.034503
783.0405	0.034566
783.7475	0.035432
784.4547	0.030660
785.1619	0.030597
785.8692	0.030133
786.5766	0.029140
787.2841	0.028275
787.9917	0.028000
788.6993	0.030386
789.4070	0.030766
790.1148	0.027050
790.8227	0.024770
791.5306	0.024686
792.2387	0.024032
792.9468	0.022089
793.6550	0.023398
794.3632	0.031547
795.0716	0.030386
795.7800	0.029647
796.4885	0.024200
797.1971	0.020042
797.9058	0.024158
798.6145	0.023567
799.3233	0.023462
800.0322	0.020844
800.7412	0.017973
801.4503	0.018754
802.1594	0.017846
802.8686	0.016896
803.5779	0.019493
804.2873	0.015925
804.9968	0.016833
805.7063	0.019176
806.4159	0.023652
807.1256	0.023060
807.8354	0.025362
808.5452	0.023588
809.2551	0.022068
809.9651	0.018226
810.6752	0.020970
811.3853	0.017804
812.0956	0.016157
812.8059	0.013814
813.5163	0.016199
814.2267	0.020907
814.9373	0.016833
815.6479	0.016326
816.3586	0.014722
817.0694	0.016220
817.7802	0.015714
818.4912	0.014342
819.2022	0.012442
819.9133	0.012273
820.6244	0.014827
821.3357	0.015862
822.0470	0.015629
822.7584	0.014194
823.4698	0.011787
824.1814	0.011280
824.8930	0.010879
825.6047	0.011133
826.3165	0.012273
827.0283	0.014764
827.7402	0.013687
828.4522	0.012822
829.1643	0.014320
829.8765	0.012125
830.5887	0.010563
831.3010	0.010330
832.0134	0.007839
832.7259	0.009908
833.4384	0.008641
834.1510	0.010394
834.8637	0.011006
835.5765	0.008916
836.2893	0.010183
837.0022	0.009781
837.7152	0.007269
838.4283	0.006699
839.1414	0.007987
839.8546	0.006826
840.5679	0.006214
841.2813	0.006573
841.9947	0.005369
842.7082	0.006974
843.4218	0.006741
844.1355	0.005433
844.8492	0.005496
845.5631	0.006615
846.2770	0.005454
846.9909	0.005095
847.7050	0.005243
848.4191	0.006763
849.1333	0.003934
849.8475	0.005010
850.5619	0.005200
851.2763	0.004588
851.9908	0.005580
852.7053	0.010035
853.4200	0.014363
854.1347	0.013476
854.8495	0.014215
855.5643	0.012990
856.2792	0.012927
856.9942	0.011090
857.7093	0.010098
858.4245	0.010520
859.1397	0.009866
859.8550	0.006826
860.5704	0.008494
861.2858	0.007501
862.0013	0.005813
862.7169	0.005559
863.4326	0.006931
864.1483	0.006340
864.8642	0.006446
865.5800	0.007016
866.2960	0.003976
867.0120	0.003955
867.7281	0.006509
868.4443	0.006699
869.1606	0.004715
869.8769	0.007164
870.5933	0.005243
871.3097	0.006087
872.0263	0.005010
872.7429	0.005939
873.4596	0.004715
874.1763	0.004630
874.8932	0.004884
875.6101	0.006615
876.3270	0.006319
877.0441	0.005179
877.7612	0.006657
878.4784	0.007501
879.1957	0.007417
879.9130	0.005644
880.6304	0.008874
881.3479	0.008367
882.0654	0.007607
882.7831	0.005264
883.5007	0.007206
884.2185	0.006087
884.9363	0.007290
885.6542	0.006235
886.3722	0.007269
887.0903	0.005939
887.8084	0.005517
888.5266	0.005348
889.2448	0.004778
889.9632	0.005411
890.6816	0.005116
891.4001	0.004525
892.1186	0.005559
892.8372	0.005559
893.5559	0.004335
894.2747	0.004081
894.9935	0.005707
895.7124	0.005285
896.4314	0.005876
897.1504	0.003765
897.8695	0.004736
898.5887	0.004293
899.3079	0.004356
900.0272	0.004799
900.7466	0.005348
901.4661	0.004989
902.1856	0.004377
902.9052	0.003533
903.6249	0.002730
904.3446	0.004018
905.0644	0.004335
905.7843	0.003997
906.5043	0.003511
907.2243	0.004018
907.9444	0.004229
908.6645	0.004081
909.3847	0.003955
910.1050	0.004377
910.8254	0.004884
911.5458	0.002836
912.2663	0.006108
912.9869	0.003723
913.7075	0.004060
914.4283	0.003828
915.1490	0.003828
915.8699	0.003237
916.5908	0.005369
917.3118	0.003828
918.0328	0.005285
918.7539	0.004525
919.4751	0.003870
920.1964	0.003807
920.9177	0.004208
921.6391	0.001633
922.3606	0.002604
923.0821	0.002181
923.8037	0.003913
924.5254	0.003195
925.2471	0.003321
925.9689	0.002414
926.6908	0.001590
927.4127	0.001949
928.1347	0.001295
928.8568	0.001358
929.5789	0.003153
930.3011	0.001400
931.0234	0.002646
931.7457	0.001886
932.4681	0.003406
933.1906	0.001485
933.9131	0.003406
934.6358	0.003701
935.3584	0.001590
936.0812	0.001274
936.8040	0.003026
937.5269	0.001696
938.2498	0.001823
938.9728	0.001844
939.6959	0.001295
940.4190	0.001337
941.1422	0.001253
941.8655	0.001548
942.5889	0.002160
943.3123	0.001274
944.0357	0.001548
944.7593	0.001316
945.4829	0.002139
946.2066	0.001675
946.9303	0.000767
947.6541	0.001886
948.3780	0.000936
949.1019	0.001485
949.8259	0.000957
950.5500	0.002498
951.2741	0.000493
951.9983	0.001506
952.7226	0.002646
953.4469	0.001485
954.1713	0.000429
954.8958	0.000936
955.6203	0.001084
956.3449	0.001126
957.0696	0.001506
957.7943	0.001210
958.5191	0.001020
959.2439	0.001210
959.9688	-0.000267
960.6938	0.000999
961.4189	0.000577
962.1440	0.000809
962.8692	0.000345
963.5944	0.000134
964.3197	0.001400
965.0451	0.000471
965.7705	0.000049
966.4960	-0.000056
967.2216	0.001105
967.9472	0.001443
968.6729	0.001548
969.3987	0.001738
970.1245	0.000577
970.8504	0.002245
971.5763	0.000429
972.3023	0.001063
973.0284	0.000556
973.7545	0.001738
974.4807	0.001274
975.2070	0.001337
975.9333	0.000493
976.6597	0.001084
977.3862	0.000028
978.1127	0.000429
978.8393	0.001801
979.5659	0.001231
980.2926	0.000408
981.0194	0.000704
981.7462	0.000957
982.4731	0.002181
983.2001	-0.000394
983.9271	0.001823
984.6542	0.000661
985.3814	0.000239
986.1086	0.001654
986.8358	-0.000394
987.5632	-0.000056
988.2906	-0.000394
989.0180	0.000260
989.7456	-0.000521
990.4732	0.002477
991.2008	-0.000436
991.9285	0.001189
992.6563	0.000366
993.3841	-0.000457
994.1120	0.000408
994.8400	-0.000563
995.5680	0.000957
996.2961	-0.000795
997.0242	0.000577
997.7524	0.000873
998.4807	-0.000310
999.2090	0.000324
999.9374	0.001189
1000.67	-0.000162
1001.39	0.000049
1002.12	0.002371
1002.85	-0.000077
1003.58	0.001337
1004.31	0.001084
1005.04	0.001316
1005.77	0.000366
1006.5	0.001063
1007.22	-0.000774
1007.95	0.000936
1008.68	-0.000605
1009.41	0.000366
1010.14	0.000767
1010.87	0.001590
1011.6	0.001421
1012.33	0.001316
1013.06	0.000514
1013.79	-0.000120
1014.52	0.000155
1015.25	0.000915
1015.98	0.000851
1016.71	0.001189
1017.44	0.001590
1018.17	0.000577
1018.9	0.001443
1019.63	0.000809
1020.36	-0.000289
1021.09	0.001464
1021.82	0.000176
1022.55	-0.000500
1023.03	0.000830